time,pos_x,pos_y,pos_z,vel_x,vel_y,vel_z,acc_x,acc_y,acc_z,omg_p,omg_q,omg_r,orient_0,orient_1,orient_2,orient_3
0.0,0.0,0.0,1000.0,0.0,0.0,0.0,0.0,0.0,0.0,0.0,0.0,0.0,0.9990482215818578,-0.043619387365336,0.0,0.0
0.01,-1.3202407081245663e-49,4.6877679991891926e-11,1000.0000000005358,-2.1681179998513785e-45,3.655705889973118e-08,4.178490952590548e-07,-3.432398148865791e-41,2.8520652729074002e-05,0.0003259925524022086,1.5912048668058544e-40,-4.724696770013191e-46,4.58015172704184e-40,0.9990482215818578,-0.043619387365336,6.144841115918733e-46,1.407378754835969e-44
0.02,-1.194010667612808e-46,1.0404543554558684e-07,1000.0000011892448,-1.9608212385325433e-42,6.083076938007398e-05,0.0006952988756314582,-3.1042218135070066e-38,0.038301748015629765,0.43779098310583375,1.439067568233434e-37,-4.272961975733334e-43,4.1422370842826645e-37,0.9990482215818578,-0.043619387365336,5.5573243561131855e-43,1.2728173251322213e-41
0.03,-2.045004377751056e-45,1.0976878094577383e-05,1000.0001254662908,-3.358335168649112e-41,0.002666693781955805,0.030480449403203304,-5.316658695205829e-37,0.4444292101314709,5.079849116677623,2.4647179097659946e-36,-7.318381806260453e-42,7.094486842380332e-36,0.9990482215818578,-0.043619387365336,9.518133250480624e-42,2.179978012404871e-40
0.04,-7.385697400151564e-45,6.376842694922671e-05,1000.0007288764555,-1.2128896932341291e-40,0.008189398291290787,0.09360525079759803,-1.9201539483185902e-36,0.6654426926815951,7.606044781840975,8.901526498581265e-36,-2.6430923115800823e-41,2.56223084885525e-35,0.9990482215818578,-0.043619387365336,3.4375501963315835e-41,7.873165511905923e-40
0.05,-6.928078928305675e-43,0.0001833878524090829,1000.0020961327449,-1.1377389393020723e-38,0.01598428976591724,0.18270126804692677,-1.8011810378497195e-34,0.8932012441814808,10.209336937885832,8.349987120147902e-34,-2.479326075429107e-39,2.4034747961708446e-33,0.9990482215818578,-0.043619387365336,3.224559278546825e-39,7.385343472233105e-38
0.06,-4.758888632706137e-42,0.0003926872548816519,1000.0044884358621,-7.81511435025741e-38,0.02606185038743897,0.29788831303516816,-1.2372289714322199e-33,1.1184817582031483,12.784304995946451,5.735595567043065e-33,-1.7030459380197908e-38,1.650943790458571e-32,0.9990482215818578,-0.043619387365336,2.214945680463894e-38,5.072983068227812e-37
0.07,-4.520439933663602e-41,0.0007141581850558447,1000.0081628654077,-7.42353051766248e-37,0.038632622151276,0.44157289178190073,-1.1752364220314611e-32,1.456975469555984,16.653305820865164,5.448208026221831e-32,-1.6177131808000512e-37,1.5682216615308892e-31,0.9990482215818578,-0.043619387365336,2.103963693550668e-37,4.818796364935311e-36
0.08,1.424328296863707e-39,0.0011844133755718313,1000.0135379068311,2.3390521130912578e-35,0.056188519786332776,0.6422377199725239,3.7030079283624785e-31,2.051919215832903,23.45354395801112,-1.716655231089107e-30,5.0971911881052235e-36,-4.941250234604459e-30,0.9990482215818578,-0.043619387365336,-6.629299511274303e-36,-1.51833629472403e-34
0.09,-1.146404171913432e-38,0.0018603304815073716,1000.0212636747042,-1.8826411766692122e-34,0.07967122669440167,0.9106462881421664,-2.9804531350327226e-30,2.6449194420754334,30.231567559512552,1.3816903890703812e-29,-4.1025943639195755e-35,3.977081615166998e-29,0.9990482215818578,-0.043619387365336,5.335747828167839e-35,1.2220687228302447e-33
0.1,7.883887797458351e-37,0.0027977045440698294,1000.0319779092665,1.2947032262593543e-32,0.1091425855983296,1.2475054618475137,2.0496748596929705e-28,3.245096291895306,37.09162034386024,-9.501964721635733e-28,2.82137787318427e-33,-2.7350620299102294e-27,0.9990482215818578,-0.043619387365336,-3.669424643020573e-33,-8.404237290497602e-32
0.11,1.6163045385047754e-36,0.0040572353886197945,1000.0463744126967,2.654318217586004e-32,0.1446801281669381,1.6537014321183165,4.202113047891063e-28,3.855117202364424,44.06419125630035,-1.948032379309522e-27,5.784209489555176e-33,-5.607250236946742e-27,0.9990482215818578,-0.043619387365336,-7.522821045382523e-33,-1.722983282395466e-31
0.12,6.883292601918654e-37,0.005702844108179163,1000.0651838064312,1.1303840653166394e-32,0.18634301642224102,2.129910423960531,1.7895373653861013e-28,4.474748269780873,51.1466067652862,-8.296008917480116e-28,2.4632985578469378e-33,-2.3879376165575244e-27,0.9990482215818578,-0.043619387365336,-3.2037142267225244e-33,-7.337601175032008e-32
0.13,-3.237648860025256e-36,0.007798219077311646,1000.0891340519223,-5.316912838258548e-32,0.23418484181770713,2.6767449904902847,-8.417328662448447e-28,5.102769784305437,58.324925523561355,3.9021388988973194e-27,-1.1586454664867765e-32,1.123198438477523e-26,0.9990482215818578,-0.043619387365336,1.5069098923825602e-32,3.4513389817309944e-31
0.14,-6.812824861731305e-36,0.010405074241706978,1000.1189305427971,-1.118811753164104e-31,0.2882120261950031,3.2942785336937086,-1.7712169682429662e-27,5.72961342830928,65.4897811601788,8.211078487408639e-27,-2.4380805273465634e-32,2.363491094045867e-26,0.9990482215818578,-0.043619387365336,3.170916187351047e-32,7.262482448703811e-31
0.15,-4.376951656417085e-36,0.013584129458442184,1000.1552673101977,-7.187892035413462e-32,0.3484072423640749,3.982313002882224,-1.1379319445847294e-27,6.341507513738313,72.48376256038297,5.27527043712978e-27,-1.566363559790076e-32,1.5184430055027413e-26,0.9990482215818578,-0.043619387365336,2.0371794578994844e-32,4.66583762663703e-31
0.16,-2.253544206097434e-36,0.017396047078667102,1000.1988377279706,-3.7008022299518747e-32,0.4147288832778281,4.740372827331379,-5.8588262835675735e-28,6.928018602127114,79.18761497681643,2.7160581295801412e-27,-8.064675605068443e-33,7.817948896746515e-27,0.9990482215818578,-0.043619387365336,1.0488747248097608e-32,2.4022818106029654e-31
0.17,-3.2278252924504663e-35,0.02190061224864114,1000.2503251434646,-5.3007804363786574e-31,0.48692808730178694,5.565613505542966,-8.391789080952838e-27,7.512422663306194,85.86738396203944,3.890299157524243e-26,-1.155129942559587e-31,1.1197904667556616e-25,0.9990482215818578,-0.043619387365336,1.5023376760005692e-31,3.440867042624455e-30
0.18,1.4359170829387499e-34,0.027153964294948298,1000.3103712321187,2.3580833818069595e-30,0.564985813007913,6.457817392998584,3.733136773524421e-26,8.099518502836771,92.57792011460754,-1.7306224816741725e-25,5.138663549773958e-31,-4.981453811292625e-25,0.9990482215818578,-0.043619387365336,-6.683237591443537e-31,-1.5306899596398192e-29
0.19,4.6673487597601906e-32,0.03329144020753081,1000.3805229028062,7.664786273705262e-28,0.647738844606952,7.403688872387663,1.2134301831875066e-23,8.33245512170906,95.24039785154618,-5.625268192313584e-23,1.6702869010219468e-28,-1.6191869672833375e-22,0.9990482215818578,-0.043619387365336,-2.172339966857072e-28,-4.975401413903945e-27
0.2,-7.474530712456858e-31,0.04022824575645985,1000.4598109530446,-1.2274780256655025e-26,0.7314860751214491,8.360924097379776,-1.943249077474805e-22,8.411451275738267,96.143328023817,9.008591822355027e-22,-2.674882761695397e-27,2.5930487176173647e-21,0.9990482215818578,-0.043619387365336,3.478896186237631e-27,7.967861968158787e-26
0.21,-5.042628983711349e-31,0.04796029647194202,1000.5481886971302,-8.281076775527902e-27,0.8156778051171752,9.323239974690887,-1.3109965692312828e-22,8.422960994895401,96.27488471577315,6.077570348346432e-22,-1.8045870518232786e-27,1.749378405501918e-21,0.9990482215818578,-0.043619387365336,2.347007914598363e-27,5.375450746611777e-26
0.22,2.2739450696053943e-29,0.05653478873833534,1000.6461955922047,3.7343048171027834e-25,0.8989954220642051,10.275564694136872,5.911865010300563e-21,8.174920707886237,93.43977126206646,-2.740646034725879e-20,8.137683423512748e-26,-7.888723149997545e-20,0.9990482215818578,-0.043619387365336,-1.058369967920544e-25,-2.424029164479212e-24
0.23,-8.697014241851641e-29,0.06591783538489236,1000.7534443061342,-1.428236003229137e-24,0.9763802153296921,11.16007692859976,-2.2610737118381993e-20,7.281597280970516,83.22903776913776,1.0481975978435338e-19,-3.1123684373893866e-25,3.017150172297666e-19,0.9990482215818578,-0.043619387365336,4.0478808425000137e-25,9.271031410533526e-24
0.24,4.754408569299495e-27,0.07602449279322566,1000.8689639289174,7.807757126644594e-23,1.04456501567298,11.939432762776882,1.23606423221087e-18,6.354251541559483,72.62942746492689,-5.730196022359753e-18,1.7014426742379248e-23,-1.6493895761381884e-17,0.9990482215818578,-0.043619387365336,-2.2128605093542889e-23,-5.068207313306741e-22
0.25,-3.5084318422387506e-26,0.08676648276458848,1000.9917454361259,-5.761596488881993e-22,1.10347232287667,12.612746365129887,-9.121317716243227e-18,5.4302219472624875,62.067720872811975,4.228496961101279e-17,-1.255549574469934e-22,1.2171379099698427e-16,0.9990482215818578,-0.043619387365336,1.6329413344034776e-22,3.73999408378413e-21
0.26,-7.95283177053083e-27,0.09805317953739644,1001.1207529705644,-1.3060253032169758e-22,1.1530356681736245,13.179257994173897,-2.0675991036655418e-18,4.490227519738223,51.32353540190604,9.585058648989103e-18,-2.846050598762481e-23,2.7589799302895923e-17,0.9990482215818578,-0.043619387365336,3.701513470294529e-23,8.477731678588415e-22
0.27,-2.6298766238944585e-24,0.10980011201584258,1001.25502102319,-4.318820659418704e-20,1.195917708691423,13.669401960141458,-6.837225666540415e-16,4.186138869893386,47.84778622944367,3.16962843009457e-15,-9.411442560423596e-21,9.123513528035134e-15,0.9990482215818578,-0.043619387365336,1.2240323987022152e-20,2.8034527836719286e-19
0.28,3.066070293714464e-23,0.12196555489993668,1001.3940726716414,5.035144085244135e-19,1.2368434695709085,14.13718554752433,7.971253980940718e-15,4.030107604769976,46.064340708976616,-3.695345813308306e-14,1.0972432772448122e-19,-1.063674757532397e-13,0.9990482215818578,-0.043619387365336,-1.4270514981981655e-19,-3.2684359493331785e-18
0.29,-7.789127343530353e-23,0.13453303709601716,1001.5377196504567,-1.2791415302314215e-18,1.2764207621008703,14.58955607114332,-2.0250387759359295e-14,3.88090401863979,44.358935913272326,9.387755778870185e-14,-2.7874662987385333e-19,2.7021879294494066e-13,0.9990482215818578,-0.043619387365336,3.625319963481718e-19,8.303222491577853e-18
0.3,-6.330584120693299e-22,0.14748869461588646,1001.6858034935254,-1.0396174952934009e-17,1.3144718182245603,15.024481632811595,-1.6458426924264127e-13,3.729538673914479,42.628822093569944,7.629863403379179e-13,-2.2655028104552547e-18,2.1961931347174722e-12,0.9990482215818578,-0.04361938736533598,2.9464652432871505e-18,6.748413029789028e-17
0.31,5.844382243703383e-21,0.16081651433087282,1001.8381411699495,9.597727340633975e-17,1.3510074883047656,15.44208625275418,1.519438589577176e-12,3.5776100055262043,40.892269615391015,-7.0438742059884374e-12,2.091507536438005e-17,-2.027520986306771e-11,0.9990482215818578,-0.043619387365336215,-2.7201706542793233e-17,-6.230121033468899e-16
0.32,-2.5022263924112062e-20,0.17450206749750846,1001.9945677584363,-4.109191640361126e-16,1.3860231532003644,15.842317133882021,-6.505357079585686e-12,3.4255944053236056,39.15472264999268,3.015779462754683e-11,-8.954625381049472e-17,8.680671988164855e-11,0.9990482215818578,-0.04361938736533507,1.1646197184199148e-16,2.667377428069067e-15
0.33,2.707499338734539e-19,0.18853077268730523,1002.1549165924956,4.446293781711061e-15,1.419509184274082,16.225064220895966,7.03903133810276e-11,3.269815062374209,37.3741633606682,-3.2631823107377984e-10,9.689228109549369e-16,-9.392800643062439e-10,0.9990482215818574,-0.04361938736534603,-1.2601606021989946e-15,-2.886198724685825e-14
0.34,7.648229987742926e-18,0.2028888397923777,1002.3190300504739,1.2560031668000944e-13,1.452083055746872,16.597385286245526,1.988407893384833e-09,3.301487444178955,37.73634866429918,-9.217940867945704e-09,2.737043881243325e-14,-2.6533081105289484e-08,0.9990482215818455,-0.04361938736561919,-3.5597416291947266e-14,-8.153025679793827e-13
0.35000000000000003,-4.4481172754880424e-17,0.21757610274075107,1002.4869062341535,-7.304761223531058e-13,1.4855195579001808,16.97956617898702,-1.1564337782018012e-08,3.3745221150939217,38.56994939916697,5.361041977666367e-08,-1.5918313376347833e-13,1.5431316347116435e-07,0.9990482215819297,-0.04361938736368899,2.0703023134072684e-13,4.741700292996934e-12
0.36,-6.972772403611588e-16,0.23259891445113617,1002.6586177576794,-1.1450785651513847e-11,1.5189530528924677,17.361711827548998,-1.812800570633578e-07,3.29287076583096,37.62177614726373,8.403853415122442e-07,-2.495320364737036e-12,2.4189797640793584e-06,0.999048221582985,-0.0436193873395178,3.2453611143774428e-12,7.43298679002981e-11
0.37,3.8739291734177055e-15,0.24795165825466292,1002.834100422753,6.361821385561942e-11,1.5514489938341127,17.733148769559758,1.0071547742657214e-06,3.1978670557147,36.640174465981644,-4.669008398597134e-06,1.3863487574857873e-11,-1.3439354872848517e-05,0.999048221575595,-0.04361938750877664,-1.8030559971741334e-11,-4.129614836791523e-10
0.38,-1.7627736399834428e-14,0.2636249257629351,1003.0132466882075,-2.894851851629952e-10,1.583053611941829,18.094359986986813,-4.582907451281008e-06,3.1497081396997526,35.599138009701925,2.124562572383636e-05,-6.308373065488257e-11,6.1153778109319e-05,0.9990482216103554,-0.04361938671263076,8.204537153240086e-11,1.879119584201986e-09
0.39,7.22077443514279e-14,0.27960971827723774,1003.195953710717,1.1858058102100768e-09,1.6137560588727677,18.44542100291031,1.877276821722052e-05,2.886792964676058,34.643671442725,-8.702754999599983e-05,2.5840719378495363e-10,-0.00025050161153323863,0.9990482214651241,-0.043619390038984594,-3.3607895412397736e-10,-7.697357361384923e-09
0.4,-4.3377034682383847e-13,0.29589862688478424,1003.3821367428719,-7.123438104605138e-09,1.6439462028491825,18.789761244234533,-0.00011277280925430609,3.862097850995725,34.247166466474205,0.000522796701158098,-1.5523179553199497e-09,0.0015048271053291068,0.9990482222831073,-0.0436193713040466,2.018912040529179e-09,4.623998993826676e-08
0.41000000000000003,4.697572486044286e-13,0.3124884037625703,1003.571758840962,7.714420105305722e-09,1.6738822234059343,19.13324345265632,0.000122128783077487,2.092899301322301,34.639832109738286,-0.0005661694989381952,1.6811029545698695e-09,-0.0016296721198230113,0.9990482208224305,-0.043619404759118616,-2.186407098313017e-09,-5.007619955570212e-08
0.42,1.5737010941696088e-12,0.32937898385724224,1003.7648191534513,2.5843542375706065e-08,1.7040047391959388,19.479148316997527,0.0004091351440124049,-0.08647116423031953,34.916866759390274,-0.001896685070025968,5.631746113291215e-09,-0.005459451250028034,0.9990482190377533,-0.04361944563503767,-7.324530389126081e-09,-1.6775679410329628e-07
0.43,-7.344902931531896e-12,0.346572642201996,1003.9613427711683,-1.2061903677880667e-07,1.7354788038167994,19.825948652948956,-0.0019095480900298354,17.585174780611474,33.41969062876218,0.008852359436388034,-2.6284933454267424e-08,0.025480785162728385,0.9990482334559048,-0.04361911540434914,3.4185630884100056e-08,7.829678541615702e-07
0.44,1.1823660660818675e-11,0.36407000920634,1004.1613403029583,1.9416983088842114e-07,1.763469941549019,20.17372169550823,0.0030739478577858125,-20.373986927370485,36.890445026847566,-0.014250330467147255,4.2312898693494306e-08,-0.04101839873770637,0.9990482024672822,-0.0436198251620573,-5.50312649217407e-08,-1.2604041608491292e-06
0.45,1.3837896501595578e-11,0.38187200347788364,1004.3648182084485,2.2724789730055135e-07,1.7937114839308557,20.522308789691884,0.0035976144383355665,-24.35586701325451,37.33373317772067,-0.016677964953052377,4.952117027033585e-08,-0.04800614400872516,0.9990481992109926,-0.04361989974351496,-6.440619112678493e-08,-1.4751220310142967e-06
0.46,-1.4829065815848457e-10,0.39998101470187686,1004.5717906756666,-2.435250202366003e-06,1.8447266910749898,20.87000359984488,-0.0385530136606914,296.78696035668725,8.921681280086368,0.1787256032264084,-5.306823136970083e-07,0.5144468807006904,0.999048461314126,-0.04361389658157596,6.901942409072666e-07,1.5807808420735614e-05
0.47000000000000003,-1.1450337779659023e-10,0.41839457175962413,1004.7822616131506,-1.8803906963088976e-06,1.8711196253181754,21.220735561146952,-0.029768903471109727,229.87105661532348,14.952959488057225,0.13800387375909706,-4.097690185599898e-07,0.3972327472860314,0.9990484066923349,-0.04361514762902973,5.32936955712836e-07,1.2206078806401527e-05
0.48,-1.145953107618368e-09,0.43711857580810304,1004.9962367466867,-4.510077733692148e-06,1.8996182948107672,21.572024208396396,-0.013999705528531067,20.01640251246334,33.636315618621865,0.11668167541362805,-1.41064390789869e-05,0.314839086016449,0.9990491501119175,-0.04359807338742417,2.5697109734523842e-06,5.8887883262521466e-05
0.49,-1.1454649252398858e-05,0.4569541732004246,1005.2136573727935,-0.003435954364848227,2.0535715427395496,21.913919351005898,-0.6619191521895048,11.537502530309798,34.72005230233459,1.2810188349449982,-0.016580850246418345,1.6430337406049633,0.9991886989880142,-0.039770401455865904,0.00025192554191330504,0.006339585927086754
0.5,-8.549092074372356e-05,0.4779679393333009,1005.4345470657295,-0.011890966535998242,2.14024826725464,22.265292170998283,-0.9778869581133337,6.161478040386855,35.48283017634838,1.8257130885003896,-0.056456002759193366,1.7398600575764722,0.9993832054057695,-0.031810935344705804,0.00046746382161719235,0.014868102931166851
0.51,-0.00025562747681914604,0.499612222291281,1005.6589816273224,-0.02230791391004501,2.1825738688974137,22.62222052594331,-1.0819407479226484,2.536502845838408,35.844234601456364,2.010561889751392,-0.1007120275039893,1.7755263892584137,0.9994756442955381,-0.022101008942023388,0.0004989476224139916,0.02365938625683181
0.52,-0.0005331118541954244,0.5215196208848784,1005.886998325684,-0.03318458310888336,2.1948210815350873,22.981248380155954,-1.0809982388170818,0.07101787516821334,35.92691560311753,1.9894412099378334,-0.1397900701823614,1.810035699119081,0.9993952884539102,-0.012023478568653535,0.0003304050102750575,0.03262427867114249
0.53,-0.0009182472974709097,0.5434407389555835,1006.1186064858473,-0.04374909831317193,2.1866233717528174,23.34027110739427,-1.0255845666431722,-1.6016662010953837,35.86213969270105,1.857943844563104,-0.16990092743334187,1.8439442511658795,0.9991249569038766,-0.002350032353129857,-2.400995102365558e-05,0.04175789509852392
0.54,-0.001405750962037502,0.5652061642177253,1006.3538003898847,-0.05361750249664321,2.1645793729615455,23.698304808994628,-0.9457511565041138,-2.7350521942909887,35.74028311580521,1.6750723196745068,-0.19028520370124932,1.8772779559301924,0.9986745059836496,0.0065250962980671345,-0.0005380700348845332,0.05105160914118921
0.55,-0.001987742804588226,0.5867010050366167,1006.5925682502002,-0.06263873633902285,2.1331430100094635,24.055058362169085,-0.8582562687404981,-3.5045201837841704,35.61179285383507,1.4759570568596225,-0.20174950402790148,1.909098151530834,0.9980631321117953,0.014438514421437974,-0.0011814629994127144,0.06049879061666506
0.56,-0.002655571617969334,0.6078474464748921,1006.8348974260504,-0.07079037412536707,2.0953003879759486,24.410596663450846,-0.7728907067513235,-4.0332830673807205,35.4992404403746,1.2804025471838452,-0.20574080896845562,1.9400313307265202,0.997309976173023,0.02136142093568381,-0.0019248481037584782,0.07009197869685119
0.5700000000000001,-0.003400769704373697,0.628592154438822,1007.0807767737283,-0.0781195911596128,2.0530259943402935,24.765124833292482,-0.6942722436140744,-4.399642772629199,35.41036199400288,1.0987424621907982,-0.20386135178078787,1.9702488655691395,0.9964301228998665,0.027338118153668392,-0.0027421155668232115,0.07982614269747264
0.58,-0.004215506843693439,0.64889789610641,1007.3301974025231,-0.08470525730295875,2.007649710453159,25.118880265188764,-0.6243367285217591,-4.660023944247552,35.344535960409694,0.9356741087683557,-0.19762757825135038,1.9999489480683839,0.9954337261159172,0.03244880982945886,-0.0036112013241565567,0.08969748008376262
0.59,-0.0050927332499817665,0.6687380155908718,1007.5831526163046,-0.0906365661027064,1.960061348278371,25.472081479899273,-0.5633878124727608,-4.848422047008215,35.29875394606878,0.792539694128355,-0.1883659672831007,2.0293452325229437,0.9943265570054001,0.036789127889556766,-0.004514005594428877,0.09970299152330044
0.6,-0.006026348604925461,0.688093686570955,1007.8396378129329,-0.0960017492582768,1.9108475834911367,25.82490897353757,-0.5109678543559649,-4.987743742294014,35.269056051936175,0.6686887917329458,-0.17715328016157633,2.0583206400445313,0.99311051935033,0.0404567078430341,-0.005436591318203989,0.10984073625467528
0.61,-0.0070110846001924226,0.7069507845878843,1008.0996500033405,-0.10088310140670563,1.8604229755065012,26.17750451633092,-0.466330700892513,-5.093344195693215,35.251510797138685,0.5626790597475794,-0.16484096172581406,2.087235529755361,0.9917848697812933,0.04354317209321249,-0.006368489204139299,0.12010834357760825
0.62,-0.008042639775699625,0.7252990875004001,1008.3631874934476,-0.10535104173433228,1.8090594220559908,26.529969906753657,-0.42837060424347806,-5.174612662118186,35.243344911211885,0.4727273320023276,-0.15206233503154032,2.11550431654367,0.9903469028238644,0.04612853034751144,-0.007302392751321946,0.13050500596327635
0.63,-0.009117015338191937,0.7431298161345774,1008.6302493113333,-0.1094712304164737,1.756977951030409,26.882391148095188,-0.396538093070795,-5.239534990198119,35.24177756614205,0.3968166012110214,-0.13935130417074798,2.1444701930740133,0.9887928675407067,0.048290488009036736,-0.008232397045626361,0.14102707250814384
0.64,-0.010231079031022033,0.7604366885155922,1008.9008353543418,-0.11329883415570235,1.7043134298469966,27.234823012970246,-0.3697251864794991,-5.291704845842816,35.2452513001606,0.333054926297341,-0.12703625745127084,2.1731102512246836,0.9871177986381916,0.05009233293583679,-0.00915537346540645,0.1516742635321491
0.65,-0.011382186551661358,0.7772145358963911,1009.1749459548147,-0.1168799346709714,1.6511727870496127,27.587307841228675,-0.3472278163174477,-5.334879647895808,35.25240026308522,0.2797344405418183,-0.11535539405166306,2.201708454859416,0.985316572557113,0.051588662644278034,-0.01006934830463628,0.1624443761942518
0.66,-0.012568035838748354,0.7934589167813242,1009.4525817120675,-0.12025478321848278,1.5976390947983083,27.939854070530824,-0.32848469203588415,-5.370741536174235,35.256163793150634,0.23527485360624853,-0.10447883687206241,2.2310460887948445,0.9833837727649656,0.05282796359933534,-0.010973254358100213,0.17333440139174727
0.67,-0.013786732956201857,0.8091662481722969,1009.7337430214872,-0.12345817312660216,1.5437781686361953,28.29240404827244,-0.31273138081191276,-5.4007256256896765,35.25391829086184,0.19829308050481662,-0.09449097639329587,2.2587883156643946,0.9813132614253756,0.05385062899422505,-0.011867203896244433,0.18434538141776188
0.68,-0.015036720381252712,0.8243335389625656,1010.0184297363468,-0.1265181270585495,1.4896376694694846,28.644937150544916,-0.2996573269847398,-5.426856117624392,35.25282316109708,0.16761359916949464,-0.08542910554376092,2.2871630854384875,0.979099917772497,0.05469042629371102,-0.01275155842366442,0.19547210181632124
0.6900000000000001,-0.016316686143073626,0.838958154620043,1010.3066417414642,-0.12945906378163166,1.4352507434732478,28.997463325803587,-0.28882231308647355,-5.450140810458953,35.252486181958574,0.14221346755194497,-0.07729889531552092,2.3156348746599464,0.9767380001618363,0.055376080899475516,-0.013627226683601048,0.2067128918102628
0.7000000000000001,-0.017625585064949698,0.8530378424824752,1010.5983790040289,-0.13230064984519616,1.3806410846201846,29.349988762197704,-0.27982381827643826,-5.471222594471352,35.25274062704779,0.12125352309061789,-0.07007835510725588,2.3440623221541492,0.9742221361080889,0.055930689077365946,-0.014495307228461372,0.21806550380871945
0.71,-0.018962466577655473,0.8665703596877415,1010.893641535227,-0.13506060830566646,1.3258297057794652,29.70251829800833,-0.2724695598276169,-5.490991910543717,35.2531803665561,0.1039508619063618,-0.06373462550332494,2.371635879859998,0.9715464221448309,0.056375563540176345,-0.015357111690631827,0.22952820382372033
0.72,-0.02032659380728654,0.8795537900590078,1011.1924293874797,-0.13775418728069636,1.270826891146971,30.055053446817272,-0.2665129853422726,-5.509529639302955,35.25385775612864,0.08967268004810568,-0.058197353545631436,2.4014336278033412,0.9687064963524539,0.05672732162952246,-0.01621381600889784,0.2410944679831499
0.73,-0.0217173745001931,0.8919862820477262,1011.4947426267734,-0.14039390319540498,1.2156423275584565,30.40759541482679,-0.2616074204984063,-5.527294041486213,35.25452321869554,0.07790162090243687,-0.05340409522516909,2.429438160837842,0.9656959418853115,0.05699945463186525,-0.01706703829270541,0.25276632312197017
0.74,-0.023134323862441564,0.9038660520689705,1011.8005813174501,-0.14298952525647965,1.160283270150251,30.760143766503806,-0.25766044996624554,-5.544444647253759,35.25509814995325,0.06819782969021544,-0.0492940372643949,2.457989518628591,0.9625103170956005,0.05720344875153242,-0.017917845433561713,0.26453788582279636
0.75,-0.024577058708396576,0.9151914039836834,1012.109945523511,-0.1455494288826397,1.1047542762226839,31.112698659712954,-0.2544999184932936,-5.561250479399049,35.25568940139153,0.06020067918757457,-0.04580156917209467,2.48673694970832,0.9591445163139826,0.0573484458647918,-0.01876742178304776,0.2764064415264641
0.76,-0.026045265869195776,0.9259606491443066,1012.422835303292,-0.14808060000018625,1.0490586117532648,31.46525908810205,-0.2519743581527119,-5.577730259510217,35.25616543249912,0.05360382474643075,-0.042862722418209445,2.515002468208819,0.9555932980142683,0.05744208591260135,-0.019616881511237305,0.28836944194709613
0.77,-0.027538661584553644,0.9361720963414268,1012.7392507025929,-0.15058959573135927,0.9931988171554054,31.817822326595927,-0.2500539141665821,-5.59413521309751,35.256376010973845,0.04812444646816998,-0.040413157545576214,2.543158212716103,0.9518517887928628,0.05749139522240738,-0.020467219373318697,0.3004230518780604
0.78,-0.0290570492848331,0.9458241110458726,1013.0591917449059,-0.15308184500530278,0.9371759381722128,32.1703869221891,-0.24862446089675766,-5.6104490041434065,35.25646870112865,0.04354763037304489,-0.038389081441069076,2.5715676946248363,0.9479152581205944,0.057501553382713115,-0.021319289365875262,0.31256327929913813
0.79,-0.030600290509810026,0.9549150773109538,1013.3826584298442,-0.15556183058531678,0.8809903748403466,32.52295096783069,-0.24757122885002616,-5.626673179781901,35.2563210176276,0.03970411069433676,-0.03673137706218835,2.600188595861873,0.9437788730437366,0.057476516539992445,-0.022173838913839377,0.3247863777704498
0.8,-0.0321682807981156,0.9634433770717968,1013.709650744152,-0.15803316231573253,0.8246427781100493,32.87551261726264,-0.24682344643547038,-5.642826327686678,35.25597524181067,0.03645164075071202,-0.0353893060004631,2.6287224229726873,0.9394377983208725,0.05741956395275493,-0.02303151188604146,0.33708884172506476
0.81,-0.033760951364340985,0.9714073950176063,1014.0401686544668,-0.1604986134238156,0.7681337556646357,33.22806996400871,-0.2463267944475508,-5.658913501484469,35.255475731707534,0.033675976287334736,-0.03431944459607811,2.6570985957121915,0.934887442253233,0.05733328223015484,-0.02389280953952294,0.34946693803177453
0.8200000000000001,-0.03537825859849287,0.9788055180005146,1014.3742121020551,-0.1629604212874263,0.7114637149341567,33.580620551248465,-0.24604195600380882,-5.6749768554881985,35.25465175578974,0.031283376514517236,-0.03348265423239136,2.6854937791371283,0.930123286393296,0.057219731930350924,-0.024758103951118174,0.36191639928739894
0.8300000000000001,-0.03702017339187354,0.9856361384080713,1014.7117810142416,-0.16542049026140132,0.6546331857452208,33.93316253665731,-0.24594238513887476,-5.690987971099711,35.25370533189625,0.029193148865548534,-0.032842862213173826,2.713935094780002,0.9251406312109653,0.05708061947196537,-0.025627690550499366,0.3744327136243916
0.84,-0.038686686485533354,0.9918976515445024,1015.0528752907924,-0.16788047368645043,0.597642391607514,34.2856933081016,-0.2459996085435042,-5.706987062962844,35.25246321268067,0.027341003501609853,-0.032367312594382386,2.74239379337143,0.9199348990273081,0.05691723413634815,-0.02650178149121551,0.38701142192807647
0.85,-0.040377803919169834,0.9975884580208928,1015.3974948115664,-0.17034173587526755,0.540491846913918,34.63821098601431,-0.24618970159301445,-5.722956485955841,35.251030086767145,0.02567546190407226,-0.032027842818629866,2.770847078314662,0.9145016446221104,0.05673054398406469,-0.027380510565934883,0.3996480258869299
0.86,-0.042093544249284846,1.002706962250384,1015.7456394336592,-0.1728054916816433,0.48318197911196153,34.99071315476289,-0.24647740288586714,-5.7388477510963245,35.24940554903926,0.02415514838810276,-0.031798416412457786,2.799295947399224,0.9088364900788,0.05652127122516142,-0.028263940340445725,0.4123378655710923
0.87,-0.04383393644491362,1.007251572387733,1016.0973089915581,-0.17527279604374188,0.4257130966700766,35.343196970360424,-0.24683095633780347,-5.754664280042719,35.24737898412099,0.022746674130867593,-0.03165540774564186,2.8277496135167595,0.9029350681625882,0.056289939570128664,-0.0291520646254924,0.42507605103502605
0.88,-0.04559901665118025,1.0112207048678044,1016.4525033105807,-0.17774421576731017,0.3680865174339047,35.69566303487305,-0.24729251667647972,-5.770495117626579,35.24555444191101,0.0214222125100611,-0.03158390398642499,2.8561848617661636,0.8967930132654228,0.05603690933992855,-0.030044808358359282,0.4378574978392545
0.89,-0.04738882755091145,1.0146127861709298,1016.8112221753081,-0.18022017097060805,0.3103034312309353,36.04810702030958,-0.24785432487700884,-5.78627630222433,35.24352321158902,0.02016065641126604,-0.031568812926393235,2.8846073926395723,0.8904060797536936,0.055762400929364374,-0.030942037416277456,0.45067700556114043
0.9,-0.049203419997418577,1.0174262551215407,1017.1734653167306,-0.1827010090491601,0.25236440750271705,36.40051790816026,-0.24841832740740702,-5.801736517840992,35.23945748593417,0.018949622571143066,-0.03159260662632638,2.913070389357906,0.8837701973328096,0.055466461554012705,-0.031843545342078644,0.46352923288042974
0.91,-0.05104284799029862,1.0196595437031355,1017.5392325559204,-0.18518711503025004,0.19426840318839486,36.752912703353275,-0.2490134020687314,-5.817358581739048,35.23715703341214,0.01777735285097654,-0.03164500553873136,2.9415265498666945,0.8768811913915943,0.05514904305225247,-0.03274909219666073,0.4764085495963011
0.92,-0.0529071686972731,1.0213110682841988,1017.9085238721455,-0.18767902062692865,0.1360124203861055,37.105331565567546,-0.2497294514555579,-5.834008800685824,35.243306773276736,0.016633202851660457,-0.031719912071170114,2.9698953431195925,0.8697348856604707,0.05481004330472668,-0.033658411755197445,0.4893091425024924
0.93,-0.05479644699524527,1.0223791878390778,1018.2813397585768,-0.19017793339952005,0.07758890806645076,37.457822424904194,-0.25040649392849285,-5.851319561529167,35.25557269001594,0.01551368347445722,-0.03180217364753027,2.998374834361543,0.862327637923679,0.054449406780009924,-0.034571205776886875,0.5022253700034921
0.9400000000000001,-0.056710750715956874,1.0228622204536832,1018.6576810484964,-0.192684403689924,0.018991821571142944,37.81042724855964,-0.2509493284664486,-5.8686654312625715,35.26940002004202,0.014413689264958908,-0.03188066931456895,3.0270229551501027,0.8546556884296737,0.05406703412095749,-0.03548714116940844,0.5151513983500221
0.9500000000000001,-0.05865014796822789,1.0227584309470374,1019.0375489871833,-0.19519657542233754,-0.03977632919847689,38.16316448205084,-0.2516838144400203,-5.885974818674035,35.28338280322421,0.013316877451280212,-0.031964114166397294,3.055255521754253,0.8467144416620269,0.053662660494918656,-0.0364058217845453,0.5280806916221044
0.96,-0.06061470491428811,1.0220660849272771,1019.420945007503,-0.19771439875529856,-0.09871465140864494,38.51604513319316,-0.2526739586861752,-5.903251341916867,35.29697165052295,0.01221848109340353,-0.03205075781724536,3.0831806973660427,0.8385000348244539,0.053236066970142965,-0.03732683822381262,0.5410064836544133
0.97,-0.06260448531602962,1.0207834648131795,1019.8078706782036,-0.20024087230021256,-0.15782651654610053,38.86907501072862,-0.25352081890742834,-5.9204521028887225,35.31009706516994,0.01113217964634664,-0.032119618622981884,3.11194030843533,0.8300097859562264,0.05278713756400083,-0.0382497819401715,0.553921939419839
0.98,-0.06461957305032105,1.0189088938411586,1020.1983271714664,-0.20277757551199507,-0.2171152426029171,39.22224265748492,-0.2538643639649873,-5.93732105180371,35.32334962703124,0.010065020319156168,-0.032154024132717896,3.1408465900367726,0.8212405728075972,0.052315761965744535,-0.03917428868017294,0.5668222878165877
0.99,-0.06666005588814504,1.0164404669820726,1020.592316073349,-0.20531925575090393,-0.2765730643318715,39.57554114824119,-0.2544238456723983,-5.954186699035572,35.33633029016825,0.008988523398608214,-0.032181154913578466,3.1693481998456385,0.8121878673283218,0.05182156117678282,-0.04009975520985741,0.5796995871017308
1.0,-0.0687259875745585,1.0133765781802961,1020.989838642826,-0.20786693960819835,-0.33619899220671223,39.928968462066585,-0.25509835413861537,-5.970986307846938,35.34914517242347,0.00790747719473738,-0.03219250331368631,3.197873400177522,0.8028487126865581,0.0513042942552186,-0.04102572851692848,0.5925466686211563
1.01,-0.07081742468164898,1.0097157454081567,1021.3908960046358,-0.21042129540983337,-0.3959925439223716,40.282522916021875,-0.2558046413746355,-5.987708913762001,35.3617456505302,0.00682525190710648,-0.03218169792235529,3.226415603011096,0.7932203343502924,0.05076373862488251,-0.04195177347096914,0.605357168745392
1.02,-0.07293443770057206,1.0054562104564582,1021.7954894869034,-0.2129826598554102,-0.45595288893225333,40.63620284044212,-0.25649307846655306,-6.004262667302411,35.37421489004635,0.005743614498883568,-0.032143236848785145,3.2549698606519746,0.7832995268400758,0.050199627834219045,-0.042877340672398165,0.6181233734109081
1.03,-0.07507709941571154,1.0005962243624653,1022.2036204022297,-0.2155509956050427,-0.5160785719106413,40.99000619325388,-0.257168436554346,-6.020714379982175,35.386446650226134,0.004663448088032679,-0.03207760966699424,3.2835348353145357,0.7730832154648063,0.049611700779664675,-0.04380185250863162,0.6308373766482305
1.04,-0.07724547848651024,0.9951341442451875,1022.6152899723468,-0.21812610942171334,-0.5763682148844048,41.34393128308424,-0.25783655723941346,-6.037082398279719,35.39855909358447,0.003585192295082043,-0.03198563614189434,3.312110195279512,0.7625686738462444,0.048999722254975245,-0.044724738187093625,0.6434914396256555
1.05,-0.07943964133527338,0.9890683521475442,1023.0304993860167,-0.22070787535325867,-0.6368210326349555,41.697975993352124,-0.25849810016754793,-6.0533701270079305,35.410408906956995,0.002509064498683283,-0.03186482569000359,3.3406968087410793,0.751753394876546,0.048363466599799135,-0.04564540905926169,0.6560776492988523
1.06,-0.0816596542247782,0.9823972189199778,1023.4492498394138,-0.22329615392433583,-0.6974359130802826,42.052138987760664,-0.25915155006351587,-6.0695451581903,35.42213270523164,0.0014357403861158437,-0.03171388446859843,3.3692936696591254,0.7406349106243881,0.04770270812345522,-0.046563264510843694,0.6685879638626908
1.07,-0.0839055824637254,0.9751191279779514,1023.8715425058771,-0.22589087252085036,-0.7582118096758832,42.4064183549302,-0.2597963830916036,-6.0856013303399275,35.43371514724075,0.0003660719044817813,-0.03153171410822563,3.3979007431997736,0.7292109340575262,0.04701722935466913,-0.04747768648971419,0.6810141681993255
1.08,-0.08617749041830401,0.9672324762942236,1024.2973785352779,-0.2284920150196769,-0.8191477512426732,42.76081167608784,-0.2604330225109446,-6.101555997700147,35.44500413536823,-0.000698959773937865,-0.03131732411776221,3.426518867933581,0.7174793626253889,0.04630682172326635,-0.04838803984050534,0.6933478773026972
1.09,-0.08847544175510175,0.9587356709769026,1024.7267590596614,-0.23109951643569393,-0.880242627474862,43.11531723523733,-0.26106109489957646,-6.117399504452611,35.45607568989552,-0.0017582842636586756,-0.03107023898951332,3.45514741065025,0.7054382945089133,0.04557128907884191,-0.0492936700575919,0.7055805079222299
1.1,-0.09079949957348045,0.949627127163925,1025.159685196958,-0.23371328644538544,-0.9414952697052509,43.46993356471346,-0.26168008765605477,-6.133115373413235,35.46707469100216,-0.0028107927453805007,-0.03079026101915576,3.4837852954066624,0.6930859828482082,0.04481044536439994,-0.050193908976853906,0.7177033336295765
1.11,-0.09314972596304424,0.9399052737558983,1025.5961580409542,-0.23633323886030672,-1.0029045763092836,43.824658638643406,-0.2622907921772259,-6.148721168618309,35.47791427612541,-0.003855399736139465,-0.030477255230357256,3.5124329476038154,0.6804209280129742,0.044024121893393504,-0.05108807043522648,0.7297074294069509
1.12,-0.09552618216929244,0.9295685480661883,1026.0361786697795,-0.23895927321633398,-1.064469490412337,44.17949033399607,-0.2628937516507128,-6.1642330570634245,35.48849407771677,-0.004890945159144337,-0.030131024121987815,3.5410908727557846,0.6674417978603623,0.043212161712500224,-0.0519754560166487,0.7415837421102797
1.1300000000000001,-0.09792892807642725,0.9186153984523822,1026.4797481400074,-0.2415912513908009,-1.1261890175416975,44.534426675927605,-0.2634880112757846,-6.179640428979271,35.49884023324885,-0.005916071509653586,-0.029751176863980468,3.56975873890854,0.6541474984528551,0.04237442451646062,-0.052855349805122694,0.7533230427191193
1.1400000000000001,-0.10035802333299643,0.9070442755448289,1026.926867503881,-0.24422903286783415,-1.1880621688585682,44.88946571149485,-0.26407244011111736,-6.194929377144687,35.508996644016456,-0.006929399047170953,-0.029337312589312325,3.598436097290136,0.6405369842085418,0.04151077338157657,-0.053727032494350575,0.7649160671058403
1.1500000000000001,-0.10281352665298192,0.8948536477372875,1027.377537781974,-0.2468725676718617,-1.2500878525618853,45.244605483597816,-0.26464722539619645,-6.210105356887151,35.51897737536017,-0.007929749362461444,-0.028889558691835963,3.627122718624987,0.6266095739362848,0.04062109690796128,-0.05458976258297731,0.7763532989014303
1.16,-0.10529549570847879,0.8820420032267912,1027.8317599595537,-0.2495219067648261,-1.3122648620646238,45.599844030502325,-0.2652140239248702,-6.225195409584884,35.5287632304486,-0.008916168497466497,-0.028408631489221504,3.655818618339775,0.6123649926806068,0.03970531215057121,-0.05544277382581695,0.7876249405293064
1.17,-0.10780398770015952,0.8686078328174851,1028.2895350168103,-0.25217706398402023,-1.3745920260103497,45.955179405200056,-0.26577413504184516,-6.240221551391304,35.53833736692203,-0.009887631102946833,-0.027895141039676354,3.684523779629857,0.5978030324046278,0.03876334127179473,-0.05628529592517576,0.7987211563693967
1.18,-0.11033905615924813,0.8545496411191487,1028.7508639055457,-0.2548376796512644,-1.437068536279472,46.310609792483376,-0.26632503180394235,-6.255151578372249,35.54771904151996,-0.010842379533285791,-0.027348489694951388,3.7132377888364365,0.582923886589537,0.03779513825742912,-0.05711653433385283,0.8096319057592033
1.19,-0.11290075270960494,0.8398659399180409,1029.2157475628048,-0.2575031999444283,-1.499693773556553,46.66613344565442,-0.2668621984180325,-6.269925104041862,35.5569462748315,-0.011778275509162031,-0.026767452065919232,3.741960026023033,0.5677279574334749,0.03680067363560939,-0.057935681899502676,0.8203470414516297
1.2,-0.11548913001366325,0.8245552468866796,1029.6841869167265,-0.2601733836341604,-1.5624668878298549,47.02174858900352,-0.26738321827367634,-6.284518829767438,35.56603865690949,-0.012693675662996073,-0.02615166995162061,3.7706901274647033,0.552215785915237,0.03577992647127003,-0.05874192901006484,0.8308563576802068
1.21,-0.11810424453641662,0.808616100694721,1030.1561828638,-0.26284912228606433,-1.6253861916715169,47.37745334012974,-0.2678933030380744,-6.299044017080777,35.574948762442475,-0.013588732379972936,-0.025503930474407393,3.7994286593666096,0.5363884068463615,0.03473290609227128,-0.05953445757541248,0.8411494410175077
1.22,-0.1207461535219853,0.7920470448236808,1030.6317362930758,-0.26553154023581965,-1.6884498256147102,47.73324579000363,-0.26839926502601225,-6.313639737540208,35.58361469708671,-0.01446396529830377,-0.024827674542699494,3.8281763829742417,0.5202469707222812,0.03365962913766378,-0.06031244722362652,0.8512158297327611
1.23,-0.1234149092029918,0.7748466280853759,1031.1108480735525,-0.2682203119878605,-1.751657004294549,48.089123861448876,-0.26890030109714014,-6.328283217374731,35.592015103754875,-0.015317482814847556,-0.024122801559405632,3.8569331254904187,0.5037929161712615,0.03256014427211127,-0.06107505348469273,0.8610449631275334
1.24,-0.12611055582482186,0.7570134077869636,1031.5935190422697,-0.27091280133115186,-1.815008654230879,48.44508520929966,-0.26938347073302593,-6.342693736581911,35.600193232923964,-0.01614355033252298,-0.023383566538411883,3.8856972254572235,0.4870281410425942,0.031434551202134786,-0.06182139348147784,0.8706261227704761
1.25,-0.12883313622328985,0.738545942973422,1032.0797500311467,-0.27360633750521374,-1.878505713648358,48.80112749033422,-0.2698374131032137,-6.3565874367325526,35.608197479562264,-0.016936438331224452,-0.022604204950903577,3.914467023106557,0.4699546220380018,0.03028295526754208,-0.0625505805433738,0.8799485657904478
1.26,-0.1315826832619594,0.719442806713754,1032.569541839643,-0.27630071103132514,-1.9421470983670515,49.157248732023895,-0.2702889223549752,-6.369965502892328,35.61606727348175,-0.017695406464900858,-0.02178589336870468,3.94324278736134,0.45257487783847977,0.029105477199435178,-0.06326172279776726,0.8890014010355389
1.27,-0.13435922234910902,0.6997025825613661,1033.0628952429524,-0.27899755249249586,-2.0059302122511986,49.51344723897137,-0.27079331741300544,-6.38304221951082,35.62383534211628,-0.018423444309202137,-0.020934997551592546,3.972026229039767,0.43489183231037604,0.027902249235494534,-0.06395392448300986,0.8977736264986862
1.28,-0.13716277874199317,0.6793238544085719,1033.559811015577,-0.28169853452930266,-2.069852424399892,49.86972132122985,-0.2714063241221853,-6.396036906091737,35.63153380113906,-0.019123626088928296,-0.020058004194679395,4.000819088713608,0.41690842077193746,0.026673404102696526,-0.06462628976468258,0.906254237192373
1.29,-0.13999338351722804,0.6583052238984921,1034.0602899100281,-0.2844048738828927,-2.133911436094439,50.226069039041306,-0.27212636811169066,-6.409149767750794,35.63910242873388,-0.019797978041059688,-0.01916059152439319,4.029622093095,0.3986279272134767,0.025419118063479997,-0.06527792707613143,0.9144321640332167
1.3,-0.14285108063869142,0.6366453319842791,1034.5643326301183,-0.2871167776828061,-2.1981056842499216,50.582487899428486,-0.272824980877716,-6.422538679855673,35.646276517193556,-0.020446205582242683,-0.018246647373679648,4.058433723654293,0.38005440777666666,0.024139663791696846,-0.06590795430187696,0.9222961959944033
1.31,-0.14573591579913334,0.6143428248926659,1035.0719398731264,-0.28983431761558437,-2.262433704469318,50.938975335197796,-0.27335667061585167,-6.436355839087361,35.65276392629916,-0.02106770278279687,-0.017319819387812036,4.087252160654643,0.36119202219003965,0.022835326895133953,-0.06651549059434848,0.9298351030069008
1.32,-0.14864793378526306,0.5913963503882922,1035.5831123335422,-0.29255743569068293,-2.3268942430674646,51.29552904034477,-0.2735979327454135,-6.450720825375153,35.65838879986402,-0.021661288303301374,-0.01638277209905531,4.116075795001486,0.3420450373599318,0.021506399452001584,-0.0670996497620266,0.9370376476082578
1.33,-0.15158717256180804,0.5678045678153777,1036.097850684853,-0.2952850975212775,-2.391487632902204,51.652148675473704,-0.2735908142423502,-6.46550763266249,35.663850835740945,-0.02222144828926087,-0.015430767745919435,4.144904603619418,0.3226185271818858,0.020153222259196617,-0.06765950537643241,0.9438925366676907
1.34,-0.15455366698594414,0.5435661417928768,1036.616155590979,-0.2980158239521593,-2.4562149295340228,52.008834797019226,-0.2734527741872041,-6.480478385476257,35.67024856447355,-0.02274069533735577,-0.014455696671401987,4.173739285897047,0.302917933151458,0.01877615830596959,-0.06819411268033267,0.9503884516963567
1.35,-0.15754745203901857,0.5186797365214153,1037.1380277184344,-0.3007481677565743,-2.5210772035535762,52.36558812101404,-0.27330153381396016,-6.495393807711467,35.6786510569789,-0.023211614917213012,-0.013449542100632188,4.202580549539021,0.2829487116241577,0.017375571305391913,-0.06870252648726966,0.9565140745073296
1.36,-0.16056856862909535,0.493143997350548,1037.663467845677,-0.3034821295556132,-2.5860760069035678,52.72241593073327,-0.27324971870796205,-6.509979330657919,35.68879396920469,-0.023630302915001893,-0.01240894552476538,4.23142929928062,0.262716869376334,0.01595185086044117,-0.06918378736838972,0.962258105148217
1.37,-0.16361706565739056,0.46695754420606084,1038.192476902136,-0.30621966263122014,-2.6512135407090756,53.079334366458156,-0.27340308213460524,-6.523912787724968,35.69861462779129,-0.023997589590732085,-0.01133683087253927,4.260286705585324,0.24222915551733123,0.014505421490889837,-0.06963691668662685,0.9676092682588927
1.3800000000000001,-0.16669299258996523,0.4401189952171413,1038.72505582791,-0.30896285825227293,-2.7164920519703655,53.43636019436001,-0.2738668917192136,-6.536868648765228,35.70592327845429,-0.024314639764164477,-0.010236566028075215,4.28915395769459,0.22149237161427393,0.013036710183944242,-0.07006093444754549,0.9725562902170705
1.3900000000000001,-0.16979639933680507,0.4126269627057079,1039.2612056285614,-0.31171331384180734,-2.78191337059191,53.79350915051511,-0.27470071242006844,-6.54884509936815,35.71039241851688,-0.0245829261216252,-0.0091125469302013,4.318032199365222,0.20051353819866619,0.011546170033960523,-0.07045486628445445,0.9770879261367151
1.4000000000000001,-0.17292733770864502,0.3844800341287426,1039.8009275899458,-0.31447051232704126,-2.8474775406024277,54.15079256044975,-0.27576842444907845,-6.561226376221709,35.71966813321485,-0.024805239539266798,-0.007973571331415614,4.346922379602743,0.1793006133400566,0.010034365918070772,-0.0708177619269306,0.9811930541715701
1.41,-0.17608586002484028,0.3556767902896332,1040.3442230729236,-0.31723337081842023,-2.9131841281491284,54.50822056947362,-0.27688154484456806,-6.575767608664504,35.74353015578519,-0.024984723626931972,-0.006829614863113633,4.375825395299294,0.15786180598328353,0.008501892625298619,-0.07114867755245795,0.984860585399525
1.42,-0.1792720175285018,0.326215812353013,1040.8910934462542,-0.32000078429052103,-2.979032667376802,54.8658029888434,-0.2778515078243038,-6.593980199080061,35.790202174069336,-0.025124355526860348,-0.005690272872972404,4.404742116554722,0.136205370293933,0.006949349159358347,-0.07144667044673404,0.9880794412738619
1.43,-0.18248584319276343,0.2960956876171339,1041.441540212783,-0.3227712720532805,-3.045022149258766,55.22354395928796,-0.27848835137145866,-6.613238072953689,35.841492696245474,-0.025224286430641295,-0.004558684951110378,4.433672958663669,0.11434032803993095,0.005377406065278933,-0.07171081670683824,0.9908387193701362
1.44,-0.18572735472917942,0.2653150085038818,1041.9955649873611,-0.3255430396102265,-3.1111511110373526,55.58144288473701,-0.2786009471434005,-6.6274589700426025,35.85714466512349,-0.025282306909963238,-0.0034325979573208917,4.462617957005356,0.09227634219550149,0.0037867936491650968,-0.0719402081436849,0.9931276643852786
1.45,-0.18899656939761136,0.23387236761065847,1042.553169388243,-0.32831428652493194,-3.1774180776940297,55.93949902466291,-0.2779990723857659,-6.630474559996193,35.796357843343756,-0.025296134951475962,-0.0023095926314574294,4.491577135050879,0.07002309647016386,0.0021782440974313015,-0.07213393706698575,0.9949355258907897
1.46,-0.19229351073588546,0.20176636436661632,1043.114355020392,-0.33108459499722315,-3.2438221982478628,56.29771199052372,-0.27684501005561984,-6.623612479357751,35.66855674054715,-0.025263441673069945,-0.0011870293068792254,4.520550423962537,0.047590668981806125,0.0005525067940580701,-0.07229110194875706,0.9962516877516567
1.47,-0.19561821794705256,0.16899561524797885,1043.679123455608,-0.3338569972794469,-3.310364178861012,56.6560822720773,-0.2761806404843294,-6.626904835503139,35.60849023461695,-0.025181781242367092,-6.171834295265206e-05,4.549537524567127,0.024990122004187647,-0.0010896259643815636,-0.0724108166376369,0.997065868931545
1.48,-0.1989707326371527,0.135558739345929,1044.2474762606041,-0.3366350548496278,-3.377044964555799,57.014610493809535,-0.27718277108439726,-6.6632529345204485,35.77013151184863,-0.025048689887237748,0.001069614264993063,4.578538102358804,0.0022326687770471976,-0.0027473552986768475,-0.07249219734098196,0.9973678397970551
1.49,-0.20235110390625816,0.10145435638035011,1044.8194149988115,-0.33942232735165145,-3.4438651739572723,57.37329577484016,-0.2806892791331265,-6.747864903968242,36.255796398934585,-0.024861905998331216,0.0022094957898805665,4.607551826579704,-0.02067036656353498,-0.004419873677929635,-0.0725343618637252,0.9971474194662571
1.5,-0.20575944565088897,0.06668109150712384,1045.3949412052852,-0.3422223585706939,-3.510822603527012,57.73212421828134,-0.284607514217631,-6.8294305233299495,36.7211501978808,-0.024620915947842822,0.0033539969584663386,4.636578398878483,-0.043706701026641835,-0.006106298765236487,-0.07253644182409336,0.996394848582243
1.51,-0.20919590494970383,0.031237572665896413,1045.9740564005492,-0.34503868417071576,-3.577913604502003,58.091075261772275,-0.2853441082179701,-6.822575651405187,36.59312931879245,-0.024326101246023208,0.004495882112383653,4.665617537499115,-0.06686356059360155,-0.007805709915679643,-0.07249757591407498,0.9951005836502743
1.52,-0.21266062876988498,-0.004877571141801712,1046.5567621013863,-0.34787477001762723,-3.645134575787451,58.45012885072829,-0.2794038293918659,-6.644389901609905,35.31519993322026,-0.023977849151018124,0.00562788958440896,4.694668962932671,-0.09012815694940679,-0.009517184575832113,-0.07241690315243564,0.9932550897261679
1.53,-0.21615374284810163,-0.04166565290077149,1047.1430596223292,-0.35073018963048164,-3.712485230721016,58.8092962885973,-0.2694480325973307,-6.364892772911968,33.35694667972671,-0.023576462894650416,0.0067428013889133005,4.7237325135937995,-0.11348712586814734,-0.011239710988672165,-0.07229357759872093,0.9908492115116093
1.54,-0.21967534089704346,-0.07912789808834056,1047.7329499728373,-0.35359864533545055,-3.7799702821105843,59.16863617909729,-0.26742463135558087,-6.28478229537761,32.7357451982794,-0.023122118963936518,0.007833465429325564,4.752808205772367,-0.13692623442332735,-0.012972142843005574,-0.07212677599989961,0.9878743663638573
1.55,-0.22322551397536314,-0.11726552492951889,1048.3264341370866,-0.3564733528744812,-3.8475948571028975,59.52821104602958,-0.2860511771533517,-6.723874340439526,35.59724671085354,-0.022614983341720272,0.008892735069732592,4.781896070499924,-0.16043117769354137,-0.014713322676252182,-0.07191567698319586,0.9843220190998901
1.56,-0.22680434285063975,-0.1560797908968361,1048.9235132960532,-0.3593478897168368,-3.915359429915778,59.888041945405995,-0.3296522949188128,-7.795600690601995,42.70351420840463,-0.022055551397866545,0.0099126615934497,4.810995996864586,-0.1839874296815571,-0.016462066967875503,-0.07165947457381448,0.9801837471632887
1.57,-0.23041185825247815,-0.19557214429484615,1049.5241895876065,-0.36221759214753796,-3.9832418509718988,60.247948305663286,-0.3617439373494483,-8.609898032834051,48.08923159332806,-0.021445920070761546,0.010881396350785597,4.840107183787198,-0.20757938945985488,-0.018217065496528385,-0.0713574376660945,0.9754516756185482
1.58,-0.23404807572419323,-0.23574409134472485,1050.1284654400285,-0.3650783302439146,-4.051213104478515,60.60768836221756,-0.3334568170684955,-7.972147012651666,43.74735485755728,-0.020788672367304566,0.011785907080725213,4.869228620726085,-0.23119112986462878,-0.0199769695877636,-0.07100885787680493,0.970118095730535
1.59,-0.23771300122828765,-0.2765970577920067,1050.7363428396661,-0.36792650875467103,-4.119256921967471,60.96710709049757,-0.21351495841500517,-5.120317128342883,24.570277621156386,-0.020088611986439086,0.012618393465740164,4.898359581988879,-0.2548066977851394,-0.021740430098635875,-0.07061303992675938,0.9641754035524615
1.6,-0.24140645975628763,-0.31813119188051237,1051.347816671501,-0.37076397532001537,-4.187557016486633,61.327403101067404,-0.24705858735544334,-6.049584497464588,30.736507703242403,-0.019378369054882237,0.013484451671896854,4.9275038069244115,-0.27840960011291865,-0.02350609298937011,-0.07016952806478823,0.957617799669681
1.61,-0.24511340430428843,-0.35998310772946657,1051.9604411245655,-0.3706311025877736,-4.182835993129933,61.19761354629702,0.012096618497615596,0.47158328276039196,-12.962262509454945,-0.018543686072175047,0.014403933913629364,4.921935908177999,-0.3019085668741462,-0.025267668012929737,-0.06967940964154644,0.9504617707778975
1.62,-0.24881911711784235,-0.40178789128643405,1052.5717693913364,-0.3705122279117636,-4.178120589842228,61.06805813700539,0.011879747925723928,0.4712362489743574,-12.948862762049941,-0.017796890392959275,0.015287584657522498,4.911729402335401,-0.32517811762762056,-0.027015985483803642,-0.06914601045174125,0.9427450920094255
1.6300000000000001,-0.2525236469936256,-0.44354554603947693,1053.1818027683798,-0.37039402314124403,-4.17341114103844,60.938636156234104,0.011839158547410113,0.4705240275158452,-12.93555820699582,-0.01703600421614427,0.01615106594836601,4.9014685715237025,-0.3482029918434345,-0.028749817356331173,-0.06857016868371758,0.9344765917128024
1.6400000000000001,-0.2562269959547937,-0.4852561495766757,1053.7905426787786,-0.37027604933045055,-4.168710540108353,60.80934672683308,0.01183629168628633,0.4698534479187559,-12.922288853282645,-0.016247698744713542,0.016987752950585123,4.891243084092142,-0.3709697441284867,-0.03046814107092564,-0.06795253145075766,0.9256653978010175
1.6500000000000001,-0.25992915728118393,-0.5269197516752611,1054.3979903885847,-0.3701555204750561,-4.16400658816138,60.68019130424886,0.010813518784846047,0.4651176102384321,-12.909678427578413,-0.015462765199360276,0.017855284469002135,4.881036079802568,-0.3934667457223416,-0.03217012751951923,-0.06729372134720553,0.9163198764566506
1.6600000000000001,-0.2636300912072657,-0.5685362643893265,1055.0041470958568,-0.37003092438221913,-4.159296078935158,60.551170007227434,0.00829529785587831,0.45352996586511196,-12.898151395009892,-0.014685858281483525,0.01877153300156548,4.87083828557691,-0.4156833865493875,-0.03385524186572888,-0.06659462181137178,0.9064480191571114
1.67,-0.2673298762513245,-0.6101060790045503,1055.6090141379166,-0.3699239122131739,-4.1546596321561475,60.42227014706148,0.010546350792453797,0.4609066912896322,-12.883782994516984,-0.01371928486348893,0.01934732988587547,4.860650014539854,-0.4376074112569755,-0.035522067317633,-0.0658552269874369,0.8960595389427137
1.68,-0.27102859134656204,-0.6516294365620415,1056.2125928747196,-0.36982022194248393,-4.1500198271003015,60.29350305374255,0.01174588675007186,0.46629676317824237,-12.869757858682199,-0.012753500712610291,0.019948123515786054,4.850472737997365,-0.45922682629261563,-0.0371694442572984,-0.0650758563497359,0.8851644005809526
1.69,-0.27472621141875214,-0.693106350857104,1056.8148846224346,-0.3697063591779884,-4.145369788495115,60.164869373521036,0.011860806196495606,0.4660220337946923,-12.856634415363645,-0.01181204025440562,0.02061535643759533,4.840306381255643,-0.48053063007578023,-0.03879660202343018,-0.06425735693774497,0.8737722878647964
1.7,-0.27842269655535784,-0.7345368279330305,1057.4158906867594,-0.3695910570787242,-4.140726178702924,60.03636615878751,0.011773817072256065,0.46414645065919585,-12.843795483657882,-0.010850928233094383,0.02126546396891341,4.830150639849413,-0.5015082141149952,-0.04040288680757845,-0.06340055570255819,0.8618930662729319
1.71,-0.2821180165375428,-0.775920950640614,1058.015612365006,-0.36947237842003317,-4.136095625752901,59.90799199409321,0.011709439486786826,0.4621141565018291,-12.831021544150753,-0.009858087164121282,0.021866941299230887,4.8200054770343055,-0.5221491618012247,-0.04198749966518562,-0.06250615916157234,0.8495368034782738
1.72,-0.28581216903062245,-0.8172588380107735,1058.6140509447791,-0.3693560529549478,-4.131479896741512,59.77974619609433,0.011668205641130023,0.46051376324938187,-12.818223055957292,-0.008830176661703054,0.022408397828567433,4.809870868355986,-0.5424434044131802,-0.04354964106198403,-0.06157478733567981,0.8367137934264954
1.73,-0.28950516520214126,-0.8585506222636636,1059.2112077095494,-0.36924185567639456,-4.126877593505537,59.65162856931528,0.011629366453988566,0.45907971953975557,-12.805440403603821,-0.007772233699801346,0.022894301709488907,4.799746792460368,-0.5623811620755182,-0.04508848273513355,-0.060607059997036125,0.8234345175061314
1.74,-0.293197011458135,-0.8997964579302812,1059.8070839351958,-0.3691276578609719,-4.122290311733234,59.52363846386341,0.011575192258173984,0.45857724953470125,-12.792556101533643,-0.006686457652479281,0.023314235027240157,4.789633219613589,-0.581953055728219,-0.04660317154575555,-0.05960357383796191,0.8097096842102812
1.75,-0.2968877128112087,-0.9409964721770601,1060.4016808975844,-0.36901323958261184,-4.117716353055262,59.395775733470785,0.01151923821027604,0.4586192869251891,-12.779629012956397,-0.005578096494782712,0.023675164822037117,4.779530116061758,-0.6011500449048209,-0.0480929246250431,-0.058564991355355166,0.7955501702733135
1.76,-0.30057728130452727,-0.9821507302192787,1060.994999879629,-0.3689002105512277,-4.113145260171755,59.2680415698357,0.01152165405547031,0.4557910384285111,-12.767181241038722,-0.004462520177952049,0.02402942726377561,4.769437453404606,-0.6199632639466074,-0.04955707938111396,-0.05749210464288614,0.7809669214782898
1.77,-0.3042657236555888,-1.023259341885693,1061.5870421530058,-0.36878836239579693,-4.108581003075513,59.1404349618438,0.011616599131444269,0.4511432988285337,-12.755051952631412,-0.0033375604511729213,0.02435613364656517,4.759355201333993,-0.6383842118355693,-0.0509949145897878,-0.05638563741603764,0.7659710515925553
1.78,-0.30795303933902796,-1.0643224579421169,1062.1778089790653,-0.36867589268229584,-4.1040375566522345,59.01295337165096,0.01178213818748585,0.4489201795087717,-12.742591928199504,-0.002188957010619422,0.024583361283089307,4.749283327791607,-0.656404724418172,-0.052405655460058716,-0.05524624900148065,0.7505738261871133
1.79,-0.31163921112642573,-1.105340235059319,1062.7673016136846,-0.36856092786853445,-4.0995141663119465,58.885596516404405,0.011780226025403248,0.4493124866816871,-12.729771772391047,-0.0010205953433889822,0.024712644966267166,4.739221801782442,-0.6740170104079932,-0.053788538638050915,-0.05407459436644496,0.7347866543209142
1.8,-0.31532422627267653,-1.1463128183144404,1063.3555213111838,-0.36844346418133755,-4.095004105007385,58.75836502627114,0.01146096852966493,0.4506584134791942,-12.716845510076976,0.00015693042754373653,0.024777327002535605,4.729170593523216,-0.6912135481789669,-0.05514284526212046,-0.052871359096899745,0.7186210413926822
1.81,-0.3190081076936183,-1.1872403093407107,1063.9424693277263,-0.36832940443836865,-4.0905015156614395,58.63125939429632,0.01123660781921003,0.45088951351614076,-12.704129730348164,0.0013361434238928582,0.02481271667396151,4.719129675583748,-0.7079872016417676,-0.05646798138409056,-0.05163733046944819,0.7020886177923685
1.82,-0.32269083842218255,-1.2281228089289227,1064.5281469161816,-0.3682169008465942,-4.0860052466848025,58.50427940166902,0.01119135310059324,0.4497051685044979,-12.69167027139125,0.0025137399278905063,0.024822111049402382,4.709099017160431,-0.7243311241516955,-0.05776332780518363,-0.0503733135294424,0.6852010982456406
1.83,-0.32637233405890237,-1.2689604294303265,1065.1125553234513,-0.3680913442038734,-4.081521069055474,58.37742378318585,0.010759983963291957,0.449570708861427,-12.679089299322946,0.003691931776117126,0.024760318115223567,4.699078582014689,-0.7402388288827773,-0.05902819688578098,-0.0490801101578053,0.6679702975046014
1.84,-0.33005265433230496,-1.309753264105391,1065.6956957952564,-0.36796633484729835,-4.077048385705898,58.25069222099811,0.010422456979925119,0.44930610353512274,-12.666567945708021,0.004869629438483299,0.024645665757340496,4.689068347032654,-0.7557041424726746,-0.06026211832435675,-0.047758540130599145,0.6504081086809821
1.85,-0.3337319389565389,-1.3505013966627966,1066.277569575045,-0.3678703631542073,-4.072582270765654,58.124085045764005,0.011230566054920971,0.44553392610732434,-12.654624059270812,0.006042386074269316,0.024534899684456633,4.679068296333592,-0.7707211866696423,-0.06146474700370605,-0.04640943877200598,0.6325264936316238
1.86,-0.3374099848266606,-1.3912049651996592,1066.8581778937842,-0.36775954787674275,-4.068129407284998,57.99760088453694,0.011601843593406281,0.44287994861465546,-12.642546952153825,0.007204820193466808,0.02434607496029593,4.669078382845801,-0.7852844923297662,-0.06263527226023312,-0.045033642219574385,0.6143374858460321
1.87,-0.34108664417268003,-1.4318641146440916,1067.4375219781043,-0.36760035076804937,-4.063696423264622,57.871238363568786,0.010239784066752236,0.4454379834129111,-12.629708280137548,0.008355074478605375,0.024007945459131503,4.659098562532243,-0.7993888550957877,-0.06377294474201833,-0.043631956941224424,0.5958531676641752
1.8800000000000001,-0.3447624693258908,-1.4724789315289633,1068.0156030583682,-0.3675024638325787,-4.059272232531057,57.74499867978217,0.010759888505086145,0.44348305707816865,-12.617603230540547,0.009504339218612483,0.023693771656713027,4.649128848358114,-0.813029378064964,-0.0648779209141514,-0.04220508937206491,0.577085684106239
1.8900000000000001,-0.3484374949326142,-1.5130495295184503,1068.5924223578274,-0.367473616738752,-4.054852939421817,57.61888203576204,0.013520870772035981,0.43543744322837036,-12.606473385286177,0.01064715571629745,0.02343343070870252,4.6391692160952225,-0.8262014998319045,-0.06594976972834506,-0.04075387312467318,0.5580472036063716
1.9000000000000001,-0.3521106951916577,-1.5535760870317326,1069.1679810864416,-0.36730933808657934,-4.050452708108921,57.49288608761202,0.011945405790778086,0.43762564564425444,-12.593806856389305,0.011747536247715358,0.022940919868250347,4.629219562213598,-0.8389011249991732,-0.06698681204260146,-0.039279377999909555,0.538749913629738
1.9100000000000001,-0.35578249688951324,-1.5940587303185982,1069.7422804577886,-0.3670647701595452,-4.046073512320363,57.36701008245558,0.0070770756231271735,0.447176641807791,-12.580047634597518,0.012818582609320913,0.0222615164786347,4.619279874780846,-0.8511242728573309,-0.06798893962784253,-0.03778235316256207,0.5192060377013206
1.92,-0.35945445856111446,-1.634497544773547,1070.3153216876453,-0.36700065536954374,-4.0417054769471426,57.241254864440776,0.006397341456763626,0.44550773255086573,-12.568057719482828,0.013908560174419663,0.021715590933653616,4.609350216257944,-0.8628671034819121,-0.0689572874358002,-0.036263295527129494,0.49942782980821515
1.93,-0.36312613687772105,-1.6748927020790212,1070.887105975073,-0.36702930634340303,-4.037344229160315,57.115620808976104,0.009571468432471072,0.43744743887183785,-12.55708616825828,0.014979504041218538,0.021243068067790877,4.599430536577602,-0.874126391936706,-0.06989090410932573,-0.03472313365879059,0.47942754159890916
1.94,-0.36679676559881874,-1.715244355174075,1071.4576345175437,-0.3669950278450635,-4.0329941996468,56.99010702955705,0.011624701668313307,0.43333282981677584,-12.54554225128295,0.016002758656958393,0.020663025015410036,4.589520750514957,-0.8848993327294975,-0.07078851551865938,-0.03316297946814271,0.4592174098693057
1.95,-0.3704663128245745,-1.7555526017646284,1072.02690851684,-0.36690310609248433,-4.028657509111579,56.86471282123786,0.011398939442295166,0.4329178073950378,-12.533468256522958,0.01698977536931564,0.01996964590424381,4.579620821179701,-0.8951833284562105,-0.07164980832045105,-0.03158371577068167,0.43880966648213565
1.96,-0.37413478723785465,-1.795817522512952,1072.5949291740474,-0.3667930885578519,-4.024328327963732,56.73943866262538,0.010774198243043903,0.4327532706636859,-12.521394905256495,0.01794802772575402,0.019230613824748603,4.569730735523713,-0.9049760377522401,-0.07247465435820359,-0.02998613916010868,0.41821652972725976
1.97,-0.3778021758208638,-1.8360391887271887,1073.1616976887592,-0.36668482898078664,-4.020005589446976,56.61428431576514,0.010746665845870713,0.43163973567455194,-12.509505509206278,0.01887761461616449,0.018469950594186185,4.559850475943532,-0.9142753620077435,-0.07326286849191223,-0.028371121181751346,0.3974501933337661
1.98,-0.38146848627050856,-1.8762176771976482,1073.7272152548892,-0.36657710473337546,-4.015690264462418,56.48924926684854,0.010685418172420375,0.42935326974681504,-12.497840343456991,0.01978964019835528,0.017679018661585458,4.549980015743803,-0.9230795924205678,-0.07401423714717974,-0.026739583223421827,0.3765228099337977
1.99,-0.38513371767412524,-1.9163530319143842,1074.2914830678967,-0.3664690233384228,-4.011380199279064,56.36433348224169,0.01055533500759958,0.4247623390263499,-12.486580437055215,0.020692670543880666,0.016865306837110128,4.5401193276349385,-0.9313873082620255,-0.07472867644441707,-0.02509245405357186,0.3554464901007991
2.0,-0.3887978561209976,-1.9564454130683713,1074.8545023015367,-0.3663587510387841,-4.007095465682583,56.23953338639909,0.010723524827406804,0.4236294868194806,-12.47480728928031,0.02150105079371041,0.015966538561752033,4.530268379905587,-0.9391973596575537,-0.07540583220490035,-0.023430573912766352,0.33423331267133166
2.0100000000000002,-0.3924609176809735,-1.9964950685486398,1075.4162741117739,-0.366253204531513,-4.0028388850120455,56.11484815622331,0.010667039436301463,0.42777657242581696,-12.462230473802073,0.022201710248217127,0.014973093033314816,4.520427148413891,-0.9465089087113239,-0.0760451635360906,-0.021754671942850076,0.31289531339199134
2.02,-0.39612294789749875,-2.0365021225003037,1075.9767996709058,-0.3661523459890765,-3.9985740057011747,55.990283225365445,0.010559416744695557,0.4274459564427424,-12.4504045218331,0.022942787102886737,0.014006536251711393,4.510595604514184,-0.9533213544043613,-0.07664644491881807,-0.020065611013056223,0.2914444648217922
2.0300000000000002,-0.39978394421070873,-2.0764665618872726,1076.536080168984,-0.3660468383002016,-3.9943096213309732,55.86583681687845,0.010727654008731154,0.4241023407834207,-12.439095682112221,0.023684399770397706,0.013042302611114056,4.5007737170427315,-0.9596343806853521,-0.07720979402112431,-0.018364421339556018,0.26989265651563826
2.04,-0.4034438612442365,-2.116388576149012,1077.0941167594779,-0.36593732250840894,-3.9900845032675356,55.74150237799317,0.010158986439755916,0.42868684243225946,-12.426558835989265,0.024263288223996142,0.011958002646877058,4.490961459578513,-0.9654480325642845,-0.07773486609497332,-0.016651913117090432,0.24825171515278502
2.05,-0.4071026985610113,-2.1562681486483353,1077.6509106255114,-0.36582986010345103,-3.985834124272399,55.6172898331226,0.01061486887386875,0.4231024441130599,-12.41568289909839,0.024952857544645907,0.010953003899311645,4.481158808067814,-0.9707625552018224,-0.07822184985443857,-0.014929049162531354,0.22653338283221408
2.06,-0.41076046690565116,-2.1961053677083844,1078.2064629298166,-0.3657239934367588,-3.9816112037817653,55.49319039184135,0.010689185403934444,0.42106429625428315,-12.404278057880447,0.02552766883870534,0.009870817577715737,4.4713657356276935,-0.9755784763969533,-0.07867069729920785,-0.013196704924099363,0.2047493286347757
2.07,-0.41441716721570493,-2.2359004322359706,1078.7607748127891,-0.3656171951280822,-3.977405940214466,55.3692052507726,0.010526948122890277,0.42072382481895665,-12.392638467461925,0.026024761524604107,0.00874466676040529,4.461582213806669,-0.9798966829310922,-0.07908109724751318,-0.01145569086591916,0.18291111374031724
2.08,-0.4180728102534826,-2.2756534821213106,1079.3138474216928,-0.36551161218209033,-3.9732107243071826,55.24533525980934,0.010337561044771367,0.42022577838759584,-12.381060834539833,0.026477830004425666,0.007598007295896874,4.4518082157138945,-0.9837182319690897,-0.07945290682496786,-0.009706846493005494,0.16103022858110722
2.09,-0.42172740713650914,-2.315364623865342,1079.8656819055038,-0.3654076905403861,-3.96902371725603,55.121580346004066,0.010280849767532324,0.4190396111361462,-12.369629986335228,0.026894681530805254,0.0064381735829916464,4.442043714088665,-0.9870444286229704,-0.07978608396764818,-0.007951043179818353,0.13911806116492023
2.1,-0.42538095912861057,-2.355033951226153,1080.4162794115723,-0.3653034078179097,-3.964845548327175,54.997940042262236,0.01041223052353015,0.41731408370767226,-12.35832187048863,0.027269795010363647,0.005265566653609182,4.4322886808160025,-0.9898768313409682,-0.08008062840033672,-0.006189169890701304,0.11718589465457352
2.11,-0.4290334577715267,-2.394661561837783,1080.965641083004,-0.36519727583133377,-3.9606783929531413,54.874413636439556,0.010576548556332414,0.41564415143194877,-12.347041292928285,0.027590954865563583,0.004075293686558873,4.422543089008587,-0.9922172475235038,-0.08033654373419813,-0.004422103453520719,0.09524490409689268
2.12,-0.43268489710596947,-2.4342475720154453,1081.5137680545777,-0.3650905931544814,-3.9565236433119666,54.751000542154515,0.010651164433279254,0.41436315694568826,-12.335734773001573,0.02785257277572234,0.00286618766736144,4.412806913044635,-0.9940678461267669,-0.08055382301245059,-0.002650683405973576,0.07330609763114557
2.13,-0.4363352773079527,-2.4737921101481035,1082.0606614560904,-0.3649844554861707,-3.9523824120291606,54.62770021631271,0.010535997627784505,0.41376015902751095,-12.324355319256469,0.028050434014885238,0.0016397153606577631,4.403080126858155,-0.9954309945124596,-0.0807324515125531,-0.000875741272636107,0.051380379757961794
2.14,-0.4399846036000645,-2.5132953090456898,1082.6063224150098,-0.36487924008609424,-3.9482556031282523,54.50451214855628,0.010148301649134264,0.4141044292576956,-12.312858785661625,0.02818070525979416,0.00039865619691479984,4.3933627038066785,-0.996309162024096,-0.08087241519979901,0.0009018896272902828,0.029478596291782913
2.15,-0.443632893608787,-2.5527572879325193,1083.1507520564605,-0.36477619961627916,-3.944141515022078,54.38143625293028,0.009552168093163758,0.4149583581075493,-12.301315677015797,0.028251954724278435,-0.0008519463558434985,4.383654617781879,-0.9967051055776008,-0.08097375886597198,0.002681376847570582,0.0076114314070642106
2.16,-0.44728017453722707,-2.5921781543185807,1083.6939515039003,-0.36467709190178943,-3.9400366617655935,54.25847273418459,0.008928666165207759,0.4153794897547884,-12.289878417054913,0.02828136041978383,-0.0021055351912690036,4.373955843073055,-0.9966218063483229,-0.08103657695199025,0.004461887280646256,-0.014210558775366372
2.17,-0.45092648322093737,-2.631557992976886,1084.2359218803142,-0.3645821062522306,-3.9359383985923264,54.13562166057866,0.00860585442640463,0.41441757365677007,-12.278701043341183,0.028283336726370605,-0.003356463876131729,4.364266354032997,-0.9960624917526946,-0.08106105414833353,0.00624257230954526,-0.03597698038297269
2.18,-0.45457185080626744,-2.670896870475902,1084.7766643086047,-0.36448957433966134,-3.931844654406956,54.012883007806735,0.008999159631026422,0.4112347755626769,-12.267919478358328,0.028268481336798223,-0.004599613959752799,4.35458612445459,-0.9950305687442309,-0.08104743210998917,0.008022569341744529,-0.057677559391064344
2.19,-0.45821618559147487,-2.710194816291497,1085.3161799137538,-0.36438920817009296,-3.9277533698723524,53.89025675522175,0.01045480713498766,0.40614030599683304,-12.257482469910332,0.028227682108280427,-0.005828973606940881,4.344915121942265,-0.993529677147928,-0.08099594127937974,0.009800975366914905,-0.07930218845215611
2.2,-0.46185933409924845,-2.749451851243126,1085.8544698193828,-0.3642676881540443,-3.9236635667716055,53.767742710294286,0.013123139506654584,0.40021218808326553,-12.247213737138814,0.028138700237727413,-0.007039844623545901,4.33525331195809,-0.9915636208164913,-0.08090678494543667,0.011576882565299866,-0.10084087649999571
2.21,-0.46550124436561285,-2.7886681174055346,1086.3915351252033,-0.3641306913688062,-3.919584221680663,53.64533906748557,0.01573528146951348,0.39535602955087684,-12.236805903238407,0.027965674582358397,-0.008244570141172485,4.325600673989789,-0.9891364594582743,-0.08077998269882623,0.013349558403041178,-0.12228380445430213
2.22,-0.4691419197126714,-2.827843822428918,1086.9273769180168,-0.3639941802298498,-3.9155296819657273,53.52304315098577,0.01625696150788184,0.3939191073661697,-12.225881650553191,0.02766547743930203,-0.009464691192517648,4.315957195118251,-0.9862523898614199,-0.08061545507184288,0.015118365086949378,-0.143621245337662
2.23,-0.4727813851449612,-2.8669791633659334,1087.4619962839904,-0.3638715651364884,-3.9115089934116605,53.40085314093374,0.013469689783633184,0.39715861741732006,-12.214239159057898,0.02721812363425585,-0.010712374781727848,4.306322859169173,-0.982915730405296,-0.0804131851503693,0.016882642116358378,-0.1648435778772159
2.24,-0.47641974292162165,-2.9060742962186947,1087.9953943074313,-0.3637665667298066,-3.907511640816415,53.27877037573239,0.009162756870692172,0.4023332910484983,-12.202320300190669,0.026688440781254676,-0.011965211626200654,4.296697637805022,-0.9791312388472275,-0.08017338808981112,0.01864164265794041,-0.18594156373266318
2.25,-0.480057112639103,-2.945129367096295,1088.5275720722577,-0.3636806192815594,-3.903522738974309,53.156796899574395,0.005793403663202744,0.4058189563669575,-12.190709070944665,0.02615990215437494,-0.013193114439207808,4.2870814999361535,-0.9749037755555938,-0.07989633279624649,0.02039459972136569,-0.2069060545485471
2.2600000000000002,-0.483693595024568,-2.984144489538704,1089.0585306646055,-0.36361052513721065,-3.899533421665071,53.03493379865834,0.00464300099163001,0.4058708512007641,-12.179686391150755,0.025670989987174663,-0.014379544319642992,4.277474416037575,-0.9702383443724909,-0.07958233602888463,0.02214071843069169,-0.22772806180544458
2.27,-0.48732926109951064,-3.0231197258127347,1089.5882711741015,-0.36354579466263326,-3.895544298276644,52.91318065102567,0.005141763176955042,0.40370294295715936,-12.16905605031802,0.025189357720051396,-0.015529291408622393,4.267876359047505,-0.9651401750087695,-0.07923178988147904,0.023879160010028034,-0.24839884861165237
2.2800000000000002,-0.4909641777275914,-3.0620551376831555,1090.1167946896512,-0.36347601402899427,-3.8915572182616187,52.7915368327509,0.006573865132584124,0.40073880838121273,-12.158588057157672,0.02467767674645044,-0.01664883453947188,4.258287302210823,-0.959614532704965,-0.07884509263350233,0.025609088578453638,-0.26890971826681637
2.29,-0.49459839073926803,-3.100950841288855,1090.6441022862055,-0.36340050230738985,-3.8875795690255206,52.67000077604084,0.008448801352409337,0.39771845080410584,-12.148162942737644,0.024115468490226496,-0.017742138262725478,4.248707219998808,-0.9536668958216679,-0.0784226366894946,0.027329759980169843,-0.2892522197790754
2.3000000000000003,-0.4982319307992214,-3.139806991974648,1091.1701950286517,-0.36332559637804096,-3.8836227310588636,52.548570232535994,0.010438530736558666,0.3948889898557174,-12.137740929154138,0.0234944039193599,-0.018811354230722,4.23913608776702,-0.9473028963875282,-0.0779648102179352,0.029040496196851,-0.3094180793222002
2.31,-0.5018648205058666,-3.1786237508859654,1091.695073979679,-0.36325619450169905,-3.8796956884407985,52.42724335657951,0.012197291640577382,0.3924859591079642,-12.127284206323834,0.0228068389608279,-0.01985797654651809,4.2295738824537965,-0.9405282203093568,-0.07747197697009396,0.030740618012507992,-0.32939909069200946
2.32,-0.5054970433611863,-3.2174013041200853,1092.218740191984,-0.3631891353257108,-3.8757948601158785,52.30602041507803,0.013271548848473978,0.390741393419571,-12.116756007987938,0.022047235391292563,-0.020880376684275736,4.220020588902853,-0.9333488087827483,-0.07694437769137377,0.032429432761893466,-0.3491873698503605
2.33,-0.5091285706552134,-3.25613984560167,1092.7411947151018,-0.3631187407348229,-3.871912716323685,52.18490233876877,0.013176356109743475,0.38988438942889986,-12.106120191246067,0.02121077960691617,-0.021875942936069537,4.210476194386153,-0.9257706841192374,-0.07638221456729374,0.03410624368507402,-0.36877513524686584
2.34,-0.5127593934572384,-3.2948395622598206,1093.2624385969239,-0.36304352651504285,-3.8680440720780918,52.06388965389665,0.011858983705574347,0.38983639023358735,-12.095389937297437,0.02030280129561879,-0.02284233304557973,4.200940675296583,-0.9177999700832803,-0.0757857288008022,0.03577037864190226,-0.38815475383621306
2.35,-0.516389544649475,-3.3335006262323827,1093.7824728818698,-0.36297087421062063,-3.8641887011925475,51.942982031287876,0.010180210228863194,0.38986862008717854,-12.084682672595612,0.019350067263094527,-0.023777775023743293,4.191413985032312,-0.9094430047937838,-0.07515524408840309,0.03742121752905426,-0.4073189063545109
2.36,-0.5200190581258992,-3.372123201756477,1094.3012986147178,-0.3629086073263914,-3.860346584854715,51.822179105608264,0.009081800776888428,0.3892050511475347,-12.074123310457558,0.01838102444514737,-0.024680368936650127,4.181896075055129,-0.9007061607882091,-0.07449109523690148,0.03905814241592626,-0.4262603257135844
2.37,-0.5236478761867438,-3.410707324868953,1094.8189168572937,-0.3628499708743256,-3.8565087022851805,51.701482056163954,0.008758139628695965,0.38782290791752577,-12.063714110602941,0.017401889152172206,-0.025543947638113386,4.172386917815822,-0.8915959634492715,-0.07379363040479646,0.040680440833722985,-0.4449720067292513
2.38,-0.5272758534435401,-3.449252908872118,1095.335328687743,-0.36277425291876586,-3.85265741453088,51.580893541046684,0.008688094374798144,0.3864205527863349,-12.05333990841616,0.016397594858440143,-0.026358258699686814,4.162886505859328,-0.8821190844884783,-0.07306321053303998,0.042287309806035664,-0.46344719495519665
2.39,-0.5309028441184385,-3.4877598621705923,1095.8505351840365,-0.3626638282636668,-3.848777925185872,51.46041573720307,0.008405630936777762,0.38560979482082797,-12.042899909794077,0.015354703691991335,-0.027114767160488464,4.153394829762534,-0.8722822243941281,-0.07230021308410733,0.04387797179939769,-0.48167919038223617
2.4,-0.5345287245608923,-3.5262280933779304,1096.3645374182797,-0.36252684653555933,-3.844877972157731,51.3400470016167,0.008037119613293819,0.3851861418021921,-12.032428197275395,0.014277326377867473,-0.02781823501188627,4.143911860492356,-0.8620922455122729,-0.07150512865647955,0.045451854772374074,-0.4996616065852531
2.41,-0.5381533806801628,-3.5646575112423196,1096.8773364600424,-0.3623825588882609,-3.8409750004476355,51.219784045749925,0.007964029525410705,0.38459357337313604,-12.022016935956204,0.013177130516246282,-0.028479150315488158,4.134437560573024,-0.8515560799883494,-0.07067849658825037,0.04700847521528663,-0.5173881923865603
2.42,-0.541776723209149,-3.6030480687317508,1097.3889333693849,-0.36224527670625173,-3.8370834181919062,51.09962409799138,0.008397876506010269,0.3834946697852294,-12.011722088502681,0.012060915752064812,-0.0291043742377331,4.124971899825407,-0.8406807135301768,-0.06982084501553461,0.048547333892945806,-0.5348528179566004
2.43,-0.5453987341410574,-3.641399845944711,1097.8993291790591,-0.36211498448188695,-3.83320879319455,50.9795658914288,0.00905868700556577,0.3821844479729556,-12.001494881300173,0.010921401231225642,-0.02969027611770927,4.115514869143302,-0.8294732850512556,-0.06893266931973324,0.05006788536206414,-0.5520497008184027
2.44,-0.5490194091084459,-3.679712946873673,1098.408524916639,-0.3619891707617633,-3.829355060079717,50.85960843700705,0.009583528480151215,0.3810618513722583,-11.991269356468413,0.00974896251021361,-0.030231464063657905,4.106066462882865,-0.8179409629468452,-0.06801445876241265,0.05156957673285831,-0.5689731263807718
2.45,-0.5526387774477033,-3.717987519408269,1098.9165215985856,-0.361867652380134,-3.8255241490784266,50.73975108225769,0.009787886789450242,0.3801918599117091,-11.98103585188295,0.008540309366656588,-0.030726713348524153,4.096626664253946,-0.8060909939120321,-0.06706669263978107,0.05305188494181185,-0.5856175961699622
2.46,-0.556256911300124,-3.7562237671888647,1099.4233202272455,-0.36175320316855014,-3.8217154447804647,50.6199936021878,0.009713844681142753,0.3792153095417709,-11.970856202769497,0.007300196234843065,-0.031180091673245668,4.087195442310259,-0.7939307240851078,-0.06608983759173431,0.054514324805688685,-0.6019778861880634
2.47,-0.5598738889538649,-3.794421901516942,1099.928921802825,-0.36164847815400897,-3.8179280011738856,50.50033582593076,0.009438813738200148,0.3778100485184903,-11.96078552077221,0.0060342441051264815,-0.03159470535796033,4.077772765751335,-0.7814675169797901,-0.06508435889375883,0.05595641155240929,-0.6180488220014122
2.48,-0.5634898229064774,-3.8325821747623516,1100.433327313097,-0.36155299930093404,-3.814159191340148,50.380777850829176,0.009249509252501635,0.3763053121950995,-11.950764214229558,0.004751583596721851,-0.03196048040229469,4.068358608941204,-0.7687088468889198,-0.06405071628873137,0.05737763982532468,-0.633825551182362
2.49,-0.5671048455190852,-3.8707048631411687,1100.9365377386146,-0.36146446937105453,-3.8104054123476434,50.26131992996042,0.00955417799820793,0.3754085616729237,-11.94066608938782,0.003463383182768122,-0.03225968969677553,4.05895294953297,-0.7556622524288703,-0.06298936630703736,0.05877749231542397,-0.6493034082750143
2.5,-0.5707190399672807,-3.9087901660711255,1101.4385540717071,-0.3613760638334271,-3.806658740192026,50.14196310790853,0.0097366419300308,0.3745015383539384,-11.93060371608924,0.0021616484728839624,-0.032504539683785874,4.049555766977704,-0.7423352785899701,-0.06190078936147211,0.06015547436353974,-0.6644778028523053
2.5100000000000002,-0.5743323265382206,-3.946838042510133,1101.9393773402567,-0.3612786891524393,-3.8029134525907575,50.0227080904137,0.008618592358747304,0.372190313831414,-11.920828419506334,0.0008280147480472393,-0.03272617203040328,4.040167039882385,-0.7287355035229993,-0.060785537899233244,0.06151111498910445,-0.6793444479521877
2.52,-0.5779446722242926,-3.9848485591542304,1102.4390085507866,-0.36118745423205567,-3.799187826189269,49.90355128330315,0.009425335008258347,0.37244724184661887,-11.910623352828164,-0.0004774378284644385,-0.03283681006351503,4.030786733800388,-0.7148705576475469,-0.05964412168692421,0.0628438604797742,-0.6938992196367868
2.5300000000000002,-0.5815560520287963,-4.022821758301577,1102.9374487115324,-0.3610889776626198,-3.7954548338544836,49.78449723727791,0.007466644709845371,0.36879821853328276,-11.90115453912336,-0.001844651280816961,-0.03297845068620295,4.02141483425422,-0.7007481158466944,-0.05847707139565456,0.06415339964446382,-0.7081381662950723
2.54,-0.5851664726256309,-4.060757719754011,1103.434698820925,-0.36099592438588285,-3.791737929951723,49.665541403267454,0.00654404404067691,0.366067987821939,-11.891551644641048,-0.003193856908541269,-0.03303746412898646,4.012051318616177,-0.6863758825238582,-0.05728496413926823,0.06543937697286989,-0.7220575316599431
2.5500000000000003,-0.5887759785022489,-4.098656619788348,1103.9307598562632,-0.360905939349247,-3.788039264030376,49.546683076444666,0.006687370798950262,0.3649845286265446,-11.881683864379207,-0.004520859948668092,-0.03301066324476863,4.002696160364032,-0.6717615956881718,-0.05606831930384262,0.06670116984018178,-0.7356537985828107
2.56,-0.592384718479269,-4.136518728746499,1104.425632775056,-0.36083715673102784,-3.7843767436995024,49.42791871402872,0.010810618853561034,0.37204101168920456,-11.870382468640425,-0.005754976774614677,-0.03278618531747987,3.9933493348893117,-0.6569130308321909,-0.05482751522331941,0.06793786904216144,-0.7489236495334454
2.57,-0.5959928405522336,-4.174344139274157,1104.9193185639026,-0.360785869194867,-3.7807174670432038,49.30925392945093,0.015100423654157594,0.380985603620378,-11.85877358278909,-0.006991358834582032,-0.032498784105111776,3.984010832435281,-0.64183796963799,-0.05356299838303115,0.06914897215422482,-0.7618639004404146
2.58,-0.5996003884629749,-4.212132782427735,1105.4118182354375,-0.3607331340555099,-3.7770320325347564,49.19069369310559,0.015789980187313733,0.3834492889510602,-11.848363547269546,-0.008328025336329085,-0.03230426888495369,3.974680633679204,-0.6265441858610882,-0.05227542843288005,0.07033444404514867,-0.7744715010544629
2.59,-0.6032072408745079,-4.249884513203434,1105.90313281267,-0.36065441274716575,-3.7733257883623157,49.07223669922469,0.012963249869970467,0.376334504161483,-11.839708957533439,-0.009767785546548514,-0.0322335826464417,3.965358700621398,-0.6110394440027789,-0.0509656890863806,0.07149457600942173,-0.7867435589050678
2.6,-0.6068130964547969,-4.287599340563005,1106.3932632872825,-0.3605341573290733,-3.769630793569395,48.95387683241299,0.00906779772474872,0.36386566459507363,-11.8320505965207,-0.01123171981609671,-0.03218257758081548,3.956044994320188,-0.5953315167128009,-0.04963466297408574,0.07262946178895134,-0.7986773945864278
2.61,-0.6104176874109876,-4.325277491693109,1106.882210608322,-0.3603852985922777,-3.7659775392702235,48.835608277274545,0.006829504600426202,0.3538984918492536,-11.823973777813265,-0.012618742749584484,-0.032001131867293545,3.9467394940085048,-0.5794282077402123,-0.04828293090525974,0.07373869195764798,-0.8102705586452139
2.62,-0.6140209819211276,-4.362919332171198,1107.3699756970063,-0.360251635384188,-3.7623751152464897,48.71742911188851,0.007611746709269167,0.35351046550347165,-11.814202794435788,-0.013864799136878202,-0.03157394747367565,3.9374422010766983,-0.5633373555412313,-0.046910696384908614,0.07482139689215023,-0.8215208175538259
2.63,-0.6176234116050571,-4.400525150436119,1107.856559485956,-0.3601911891925502,-3.7587917541047937,48.59934483215772,0.009561983859570451,0.36217885057487875,-11.802832991469758,-0.01502293241245868,-0.03093147281422744,3.928153129484977,-0.5470668177561053,-0.04551790207383991,0.07587658423487874,-0.8324261229533951
2.64,-0.6212252125880807,-4.438094965466102,1108.341962952094,-0.3601680595803275,-3.755198073600172,48.481360391080166,0.010686440931153934,0.3703863141116479,-11.791578438256169,-0.016201220693490666,-0.03026313692301489,3.9188722370805196,-0.5306243701698143,-0.04410522142904518,0.07690395721557862,-0.8429845974435926
2.65,-0.6248263934261821,-4.475628681841067,1108.8261870894273,-0.36011547769087465,-3.7515836807932312,48.363477267723965,0.010222891695214696,0.3695839162293943,-11.781978207361718,-0.017469456097139426,-0.02972862626764148,3.9095994639495517,-0.5140177397837664,-0.04267368987791264,0.07790360098328311,-0.8531945120435664
2.66,-0.6284268697999058,-4.51312631483378,1109.309232869831,-0.3600347419617745,-3.7479645827981978,48.24569224436719,0.009382228657906689,0.3637370863585995,-11.773318534679031,-0.018770567046914214,-0.02924264085657898,3.9003347932520267,-0.4972546684639396,-0.041224031902915605,0.0788754163526526,-0.8630542604331908
2.67,-0.6320265323581566,-4.550587929293126,1109.79110125374,-0.3599350279730875,-3.7443569542601467,48.12800209099503,0.009075221240018765,0.35736626840188934,-11.764785196348578,-0.020045990952772274,-0.02871286425340415,3.891078209341969,-0.4803428898462784,-0.03975688244166177,0.07981923537841873,-0.872562377285051
2.68,-0.635625246064347,-4.588013658420119,1110.2717931849272,-0.35982395726151245,-3.7407708349220936,48.010404702752425,0.009153340591067732,0.35298598713286805,-11.755924024380219,-0.021265429967738912,-0.028093633118692726,3.8818296883337062,-0.46329011762466704,-0.03827278066639888,0.08073480382391515,-0.8817176416475674
2.69,-0.6392229530100858,-4.625403654408351,1110.751309601395,-0.35971257287437497,-3.7372098798802185,47.89289913697314,0.00932994174331544,0.35165373798085847,-11.746543831109376,-0.02241905171762869,-0.02736755302348001,3.8725892136085327,-0.44610404711998575,-0.0367722177835562,0.08162184370204521,-0.8905189707884748
2.7,-0.6428197380153902,-4.662758089082199,1111.2296514342736,-0.35961816854368905,-3.733667618289611,47.77548629210384,0.009290708098811573,0.35223681313325145,-11.736849144166033,-0.02352770098367442,-0.026558157865996357,3.863356783008045,-0.4287923444467462,-0.035255620289879636,0.08248005268259086,-0.8989654804121627
2.71,-0.64641569312247,-4.700077112484329,1111.7068196160478,-0.35954665066131586,-3.7301376501485204,47.65816702645506,0.008934534911393734,0.35343684874158865,-11.727074280526615,-0.02460971064203927,-0.025692704026348614,3.8541323829595613,-0.411362638212512,-0.03372350472843959,0.08330915846570928,-0.9070564197311797
2.72,-0.6500108970461502,-4.737360835131624,1112.1828150826138,-0.35948414983808713,-3.7266154420805306,47.54094181423055,0.00851515896610498,0.35406515239817327,-11.71743351348954,-0.02567394543151837,-0.024797410160928502,3.8449159786886877,-0.39382249964793836,-0.03217654691321517,0.08410894282940139,-0.9147912262059616
2.73,-0.6536053735586073,-4.774609346842487,1112.6576387708303,-0.35941774331319143,-3.7230981813626904,47.423810823459455,0.00825414607580978,0.3535111122393004,-11.70803681201727,-0.026722100836883603,-0.02388658669057603,3.835707537096301,-0.37617946333256225,-0.03061543207144238,0.08487921871070012,-0.9221694710638123
2.74,-0.6571990645076173,-4.811822711634791,1113.131291618467,-0.35933887886831284,-3.719585438577821,47.30677380568162,0.00827110160926329,0.3520312909605023,-11.698837714086379,-0.027746303934996462,-0.02295649304007769,3.826507030742028,-0.3584410154903488,-0.029040836273508015,0.08561983905229248,-0.929190904953112
2.75,-0.660791897361257,-4.849000996397507,1113.6037745601598,-0.3592451664700092,-3.7160783017098082,47.18983025372816,0.00855359656515917,0.3500746044941288,-11.689755006683336,-0.02873808002177326,-0.0219987443939567,3.817314437362879,-0.34061460611543315,-0.027453392923592296,0.08633067107549046,-0.935855407941147
2.7600000000000002,-0.6643837901029771,-4.886144275506337,1114.07508852588,-0.35914239858780406,-3.712579693964599,47.07297934897368,0.008916539022901683,0.3482507798229313,-11.680678401509791,-0.02968935267609471,-0.02100070741393195,3.808129741359721,-0.32270763866987057,-0.02585367588738381,0.08701159732608775,-0.9421630247344461
2.77,-0.6679747027265447,-4.923252639522329,1114.5452344396883,-0.3590378476995779,-3.7090918972811644,46.956220391648394,0.00920858889922793,0.3468809112826684,-11.671549944436627,-0.030596628583135256,-0.019955700165990402,3.798952929266989,-0.30472746543439755,-0.024242233211115665,0.08766249915097765,-0.9481139519549407
2.7800000000000002,-0.6715646515747588,-4.960326199450789,1115.014213218319,-0.35893976166230823,-3.705616160584286,46.839552870213375,0.009340821633966122,0.34589416180316607,-11.662382731737388,-0.03146229878415726,-0.018865242255259276,3.789783989565679,-0.28668137507740005,-0.022619586187712783,0.08828325508913652,-0.9537085711748686
2.79,-0.6751536799234621,-4.9973650707834265,1115.4820257752622,-0.35885143780676465,-3.7021530575186947,46.72297638397279,0.00928048120515976,0.3451841521516692,-11.65319612004372,-0.032287635268412475,-0.017732548128709454,3.780622904916981,-0.26857660283336676,-0.02098628906070716,0.08887375173677647,-0.958947380571418
2.8000000000000003,-0.6787418588786479,-5.034369372748701,1115.9486730206836,-0.3587701291493272,-3.6987024289635,46.60649065104866,0.009057627537593134,0.3446331790234474,-11.644011298512535,-0.03307208873673668,-0.016562215930675774,3.771469650814249,-0.25042032444010565,-0.01934293795160349,0.0894338856728133,-0.9638310044379289
2.81,-0.6823292432916622,-5.071339220354222,1116.414155863254,-0.35869305328659123,-3.6952636560640513,46.49009547374124,0.008734731485067362,0.3441052413129149,-11.634852767861206,-0.03381542519896428,-0.015359354935993252,3.762324203167965,-0.23221966884348968,-0.01769013193107241,0.08996356283013417,-0.9683601692012037
2.82,-0.685915848640984,-5.108274718839161,1116.8784752087931,-0.358618138856383,-3.6918352047548706,46.373790823931735,0.008437329493202134,0.3434255831211839,-11.62575207101451,-0.034518341680027716,-0.014130017678956977,3.7531865397413453,-0.21398166986987718,-0.016028471088316402,0.09046270840598289,-0.9725358093960463
2.83,-0.6895016773780038,-5.145175967845071,1117.3416319624434,-0.3585431150757939,-3.6884155538610077,46.25757667191069,0.008274829534140264,0.34246890997359275,-11.616731721613059,-0.03518082349484678,-0.012879338516067856,3.7440566381866587,-0.19571332377994757,-0.014358557952609461,0.09093125358389692,-0.9763589343744691
2.84,-0.6930866990021328,-5.182043048831706,1117.80362702809,-0.35846446756952033,-3.6850037516544054,46.14145288582996,0.008252934416201316,0.34134095194197506,-11.607772077612669,-0.03579932163702674,-0.011608037241865972,3.734934474644468,-0.17742152144944945,-0.012681004801593499,0.0913691440306246,-0.9798307528759789
2.85,-0.6966708756555067,-5.2188760393554805,1118.2644613086813,-0.35837889520809746,-3.681599129950583,46.02541928383942,0.008345707764822836,0.34019967604984525,-11.598844003261478,-0.03636965171202782,-0.010315652256813891,3.7258200255818887,-0.1591131150451456,-0.010996421903404007,0.09177633143041562,-0.9829525451607544
2.86,-0.700254180978163,-5.255675024642902,1118.7241357020323,-0.3582876993712967,-3.678202149970903,45.90947548878047,0.008491350527938644,0.3391280043176489,-11.589932380113732,-0.03689016796083186,-0.009001600155133953,3.7167132736325783,-0.14079486460799132,-0.009305380578372402,0.09215278605282884,-0.9857257512150426
2.87,-0.7038365948806481,-5.292440093936463,1119.1826511031734,-0.3581944288884332,-3.6748138268841566,45.79362102761887,0.00861202859002391,0.3381690583968723,-11.58102951068357,-0.037360518596778865,-0.007665308960362613,3.707614204407858,-0.12247347920017496,-0.007608432756299845,0.09249848811391528,-0.9881518984900819
2.88,-0.7074181065984743,-5.32917133940076,1119.6400084032439,-0.3581011789631193,-3.6714348675164925,45.67785547903548,0.008670407157902823,0.33732734348474397,-11.572134650443193,-0.037780623181848286,-0.006307645692628253,3.6985228009094047,-0.10415557860638411,-0.005906135321312853,0.09281342916644718,-0.9902326510319528
2.89,-0.7109987138715677,-5.365868855850952,1120.096208489836,-0.35800869641383654,-3.6680656921321506,45.562178469794056,0.008666391192183586,0.33657224364232224,-11.563253376693371,-0.03815064093516347,-0.004930796465928982,3.6894390437256166,-0.08584770112614758,-0.0041990498356445334,0.0930976110860066,-0.9919697974927054
2.9,-0.7145784150654967,-5.402532738186321,1120.5512522501801,-0.35791766811310144,-3.6647066943175335,45.44658963151069,0.008601862030552106,0.33587116846324927,-11.554391628321849,-0.03847075268884989,-0.0035370010134948577,3.680362913356515,-0.06755637562546862,-0.002487737841762129,0.09335103705677683,-0.9933651404088835
2.91,-0.7181572159904243,-5.439163080975739,1121.0051405659897,-0.3578285389924759,-3.661357883008924,45.33108866933201,0.008493052390618724,0.3351753500793899,-11.545558403958696,-0.03874144427301574,-0.0021286156266205137,3.6712943903212336,-0.04928797742135001,-0.0007727562765843239,0.09357373242935146,-0.9944207041846361
2.92,-0.7217351300616931,-5.475759978450529,1121.457874313342,-0.35774150682370165,-3.658018874195265,45.215675363521314,0.008370855940990508,0.3344194941996719,-11.536765827977488,-0.038963513094809256,-0.0007081156689190157,3.6622334551584337,-0.031048724969622375,0.000945342627863604,0.09376574519888198,-0.9951387398775837
2.93,-0.7253121709495649,-5.512323524717871,1121.9094543679587,-0.3576567377901615,-3.6546892644615645,45.10034949803176,0.008266631350250556,0.3335384907464393,-11.528025994230102,-0.039137748662427634,0.0007220258778572509,3.653180088406617,-0.012844825809212495,0.002666006858164778,0.09392712486337572,-0.9955215129853495
2.94,-0.7288883497173396,-5.5488538106800585,1122.359881602594,-0.35757379699696606,-3.651368601669605,44.98511086555974,0.008205934143769815,0.33249461793557894,-11.519345943576825,-0.03926429387578354,0.0021595643995145617,3.6441342705737143,0.005317625289974776,0.004388684580464435,0.09405793504859616,-0.9955714126863182
2.95,-0.7324636744592122,-5.5853509235892975,1122.8091568866218,-0.3574915649725593,-3.648056378189582,44.869959268759324,0.008207710563862717,0.33128134690340605,-11.510726961953322,-0.039342555203338236,0.0036025153729484665,3.635095982132833,0.023432661992298303,0.0061128241654143335,0.094158255470611,-0.9952909690206682
2.96,-0.736038152879719,-5.621814950519134,1123.2572810891336,-0.35740888730729825,-3.644752099409182,44.75489450779316,0.008289955286759623,0.3298956848406367,-11.502169670201372,-0.03937186853488553,0.005048911148998378,3.6260652035518195,0.04149432804646911,0.007837874172680628,0.09422816689329419,-0.9946827227800554
2.97,-0.7396117842410811,-5.65824597927399,1123.7042550755427,-0.35732469373678116,-3.6414558637431593,44.639916270656,0.008448756777428217,0.3284027083014403,-11.493661660608678,-0.039350439970472634,0.006496885254702676,3.6170419151738664,0.05949678195835054,0.009563289741597378,0.0942677564844827,-0.9937493292014581
2.98,-0.7431845570818193,-5.694644098586657,1124.1500797065926,-0.35723802088058426,-3.638168522888222,44.52502410286337,0.00865237753035568,0.32695395772346564,-11.485173976176679,-0.03927504051506064,0.00794469973434442,3.60802609718383,0.07743432800200548,0.011288534369202657,0.09427711954653226,-0.992493588893965
2.99,-0.7467564593679124,-5.731009397391808,1124.5947558426305,-0.3571479570352368,-3.634890967810236,44.410217542751745,0.008866560311955964,0.3257054031159101,-11.476676814581596,-0.03914238008419716,0.00939064631168718,3.599017729819047,0.09530128211916826,0.013013072574045624,0.09425635169265817,-0.9909183139095512
3.0,-0.7503274848003049,-5.767341971394928,1125.0382843395396,-0.357055726800632,-3.6316236413495693,44.29549622527554,0.009022587795176503,0.32475786245840355,-11.468151048940852,-0.03895067712572856,0.010834036729984668,3.5900167963089924,0.11309206766954337,0.014736391854816512,0.09420553829560727,-0.9890264142136492
3.0100000000000002,-0.7538976352104164,-5.803641925900517,1125.480666046874,-0.35696558341854717,-3.6283663510381023,44.180859922364604,0.00900288850418143,0.3241339645793818,-11.459592686967865,-0.038700288736992605,0.012275628816320942,3.581023284125104,0.13080126029953096,0.01645801228920185,0.09412475021019219,-0.9868209385838104
3.02,-0.7574669140172858,-5.839909367138259,1125.9219018136134,-0.35688199948328,-3.625118873904233,44.06630841279366,0.008687709364735816,0.3238492905645543,-11.45099909187537,-0.038391759098895695,0.013716265450024972,3.5720371810169333,0.14842344920969613,0.01817745649827294,0.0940140578776857,-0.9843049479573759
3.0300000000000002,-0.7610353863798989,-5.8761444138111445,1126.3619924828156,-0.3568087645131471,-3.621882117474449,43.951841248665104,0.008054674020645192,0.3238489094087466,-11.442380722384145,-0.03802719899661993,0.015155210562378953,3.5630584719241565,0.16595334995413238,0.01989425145572521,0.09387357561996405,-0.9814816060276743
3.04,-0.7646032152488101,-5.912347204378963,1126.8009388881587,-0.35674858608396265,-3.618658779901709,43.83745762304903,0.007235643730459958,0.3239662041008533,-11.433768779543975,-0.03761120060218822,0.016589227146191207,3.5540871373358085,0.18338587822169256,0.02160793102949226,0.09370348726257716,-0.9783542392460198
3.0500000000000003,-0.7681705722364238,-5.94851787905146,1127.2387418624896,-0.3567040759389137,-3.615451717942996,43.72315669721437,0.006376141288130599,0.32402466508620076,-11.42519630164819,-0.03714857587547619,0.018014856674639396,3.545123157346712,0.20071596742808956,0.023318029698162428,0.0935039827873351,-0.9749261884799497
3.06,-0.771737627244668,-5.984656577580551,1127.6754022386344,-0.3566777105822746,-3.612263693726021,43.60893765047148,0.005620666546253166,0.32384861012700145,-11.416696184540694,-0.03664409479756422,0.019428637991333274,3.536166512119568,0.21793855470934967,0.02502408104657031,0.09327525241437161,-0.9712007970962728
3.0700000000000003,-0.7753044728207643,-6.0207634190134565,1128.1109208484777,-0.35666585046252935,-3.609093189856298,43.49480047803794,0.005067457772910384,0.323299771632824,-11.408294881920774,-0.03610062889701611,0.02082699102009749,3.5272171848868292,0.23504874544939683,0.026725578240371094,0.09301749714178757,-0.9671815214890221
3.08,-0.778871094248251,-6.056838493687283,1128.5452985225993,-0.35665637521685895,-3.605932754752106,43.38074630650674,0.004750604742074569,0.32229176292719264,-11.40000991450627,-0.035518417218632976,0.02220617078497553,3.518275163137617,0.2520418783326147,0.028421958398079518,0.09273093291292124,-0.9628719747811108
3.09,-0.7824374689173019,-6.092881889826409,1128.978536091482,-0.35663654039296794,-3.602774500144281,43.266776345726996,0.004699476641599599,0.32074201516794887,-11.391858145651064,-0.03489750508690363,0.023562420175297263,3.5093404346742902,0.26891330921160106,0.030112654513790242,0.09241577677090722,-0.9582757816288812
3.1,-0.7860035704397792,-6.128893694540375,1129.410634385666,-0.35659377315099133,-3.5996107177790764,43.15289177094713,0.0049447320294491275,0.3185743839839387,-11.383855139838795,-0.0342379222958504,0.024891950383119525,3.5004129865897338,0.28565839914337204,0.031797100587636955,0.09207224568181463,-0.953396569922202
3.11,-0.7895692453082362,-6.164873957430547,1129.8415942375914,-0.35652127446088133,-3.59643975592665,43.03909259329367,0.005560409641637016,0.31592887294628813,-11.375972761748317,-0.03353917612513208,0.02618990616244699,3.491492782106903,0.30227268428485804,0.03347476446740655,0.09170055401888653,-0.9482380763412277
3.12,-0.7931341854844868,-6.200822682502045,1130.2714164820081,-0.35641926414060243,-3.593267325382442,42.925377408745206,0.006673282697323055,0.31320824273159026,-11.368129753025721,-0.03280013866741332,0.027450135867361704,3.4825797554316154,0.318751913650662,0.03514515514729426,0.09130091300343449,-0.9428041698154408
3.13,-0.7966980736041349,-6.236739871008161,1130.700101953806,-0.3562883856082686,-3.5900995812835856,42.81174472787366,0.008413307036932303,0.310831111882139,-11.360241649246166,-0.03201964368067696,0.028666409611869607,3.4736738390184563,0.3350918491017287,0.03680778410475507,0.09087353366654537,-0.9370987272558111
3.14,-0.8002605962712636,-6.272625519859358,1131.127651488583,-0.35612952575997286,-3.5869422016795074,42.6981931570165,0.010889650105960325,0.30920047749469703,-11.352227268241661,-0.031196324191917313,0.029833021611185083,3.464774968161449,0.3512882589351236,0.03846216582103443,0.09041862370257023,-0.9311256287688752
3.15,-0.8038215428997241,-6.308479513457922,1131.5540659402966,-0.35594987917744747,-3.5837885049011122,42.58472378347221,0.013672922800979623,0.3083146381877269,-11.344090459946427,-0.03032361297150659,0.030957843758786678,3.455883151714909,0.36733707818582345,0.04010789259535644,0.08993630436239518,-0.9248888372474675
3.16,-0.8073808125615193,-6.3443016162035635,1131.9793461824859,-0.35576336829672683,-3.580618626253048,42.471340340762424,0.01575930504625785,0.30774023625530794,-11.33592577057021,-0.02938939613278761,0.03206323006510567,3.4469984769934494,0.3832344197334965,0.04174463972854929,0.08942660469525399,-0.918392403885293
3.17,-0.8109383125548464,-6.380091594133106,1132.4034930881112,-0.35558424257895016,-3.577412759262558,42.358046553050464,0.016129023742343967,0.3070342154331394,-11.327829784987614,-0.02838137088678382,0.03317190943361111,3.4381210338852406,0.39897640768481885,0.04337208744712181,0.08888955324699517,-0.911640384916281
3.18,-0.8144940835010716,-6.41584955883969,1132.8265074593633,-0.35542672394657643,-3.574183440792524,42.2448397598019,0.014317521120579518,0.30627648669550267,-11.319789246863461,-0.027290985229382114,0.034291351932957854,3.4292508546687763,0.4145592847059296,0.04498995680312243,0.08832536270920152,-0.9046368707707084
3.19,-0.8180483525302154,-6.451576105322628,1133.2483899994304,-0.35530499579761105,-3.570988453495446,42.131708368791,0.010636942110272298,0.3062785511631094,-11.311637240625798,-0.02611493421029082,0.03540768171876305,3.420387891031134,0.42997945931835013,0.046598025960326625,0.08773450337889425,-0.8973859997168643
3.2,-0.821601361675758,-6.4872718639043905,1133.669141404239,-0.3552331203669228,-3.5678885948113823,42.01864019152776,0.005465314565887163,0.3078967819256113,-11.303197280878813,-0.02485063138798976,0.03650542473331057,3.4115320885028164,0.4452333534580428,0.048196076572623765,0.08711746389187731,-0.8898919139793287
3.21,-0.8251534546617011,-6.522937393392458,1134.0887623815404,-0.35521316548024734,-3.564908423141993,41.9056300782891,-8.669564791004974e-06,0.31100869597474845,-11.29448375729845,-0.023528692048806286,0.037568367308966344,3.402683377398231,0.4603174958492025,0.049783812578858055,0.08647464561691039,-0.8821587954194116
3.22,-0.8287051629310934,-6.55857312057883,1134.5072536609116,-0.35522505747939176,-3.5620056002142144,41.79268587280106,-0.003099845619549996,0.31368485788639955,-11.285863411834672,-0.022241021327976368,0.03857893047023311,3.3938416599431194,0.47522861234536984,0.051360794457166785,0.08580628882921029,-0.8741908990671765
3.23,-0.8322569845755895,-6.594179461722274,1134.9246159726833,-0.355246639123783,-3.5591272044452826,41.67981753083887,-0.001628451681229747,0.3138097058793628,-11.277746434626234,-0.02106854730452205,0.039531085296442385,3.385006879201775,0.48996347871312723,0.0529265633619581,0.08511261240232393,-0.8659924963216625
3.24,-0.8358091675796121,-6.629756849521191,1135.3408500398848,-0.3552571797415937,-3.556204740179893,41.56703829559917,0.0034791167339842826,0.3093142438905721,-11.270567202319938,-0.02001019983600792,0.040473170574772066,3.376179182235058,0.5045190041441162,0.05448064241699924,0.0843938167560401,-0.8575678980238425
3.25,-0.8393616724665324,-6.665305362423452,1135.755956651346,-0.3552364000159902,-3.5531978754700257,41.454355899007226,0.009825370766025082,0.3002385920186494,-11.264343140572558,-0.01900024537923618,0.041432963150135005,3.3673586779986655,0.5188921876857091,0.05602248197502125,0.08365019149607572,-0.848921429366346
3.2600000000000002,-0.8429139173604704,-6.700824170617398,1136.169936767679,-0.35516459520665145,-3.550149360077594,41.34176163718611,0.013603126662571817,0.29192504478914244,-11.258018540750202,-0.017870552344827633,0.04234576258740761,3.358545227200975,0.5330801591117622,0.05755136574993676,0.08288226325424014,-0.8400574235217153
3.27,-0.8464654164321983,-6.73631253413567,1136.5827913300363,-0.3550463259895375,-3.5471128406293606,41.229244619698314,0.012510560203519231,0.2892356495363132,-11.250615612498555,-0.01650704512964661,0.043132286759109295,3.349738624263975,0.5470801136914281,0.05906680542347707,0.08209042592228799,-0.830980247449463
3.2800000000000002,-0.8500159564469809,-6.771770074500319,1136.994521207387,-0.3549214214138879,-3.5441359026452286,41.11679512018071,0.006905918790080633,0.29480571580815,-11.241579223851705,-0.014904829476334923,0.04371994385248795,3.340938640189663,0.560889317375496,0.06056868389820186,0.08127481073060609,-0.8216943178679466
3.29,-0.8535655125720334,-6.807196863021739,1137.4051271793783,-0.3548347561715506,-3.541213676580468,41.00441395754543,-2.0833101416144195e-05,0.30550869974263933,-11.231518229639153,-0.013194390112995832,0.04415520982231314,3.332145328968624,0.574505131937476,0.06205694775464346,0.08043525437628503,-0.8122040980826911
3.3000000000000003,-0.8571141942698693,-6.842593318011431,1137.8146099563742,-0.3548237925771021,-3.53829594793202,40.89211105420976,-0.003204566834173341,0.31375543387840055,-11.22194838579027,-0.011599559125124642,0.04458235316393705,3.323358979944703,0.5879250167870238,0.06353150394194412,0.07957142869967022,-0.8025140822456133
3.31,-0.8606620502922334,-6.877959771573537,1138.2229702625582,-0.35484929844256796,-3.5353222254621937,40.77989826721917,-0.00045202262165889434,0.3142283828562298,-11.213955857224606,-0.01022740962080304,0.045122979803356986,3.3145798311938406,0.6011466040445692,0.06499169353885953,0.07868355952007886,-0.7926287205000915
3.3200000000000003,-0.8642091352350076,-6.913296470809456,1138.6302088363757,-0.3548365004086874,-3.532245345423498,40.667784689125156,0.008177343484585323,0.3041628915597406,-11.208125736722861,-0.009090314132488713,0.045856919823899174,3.3058080409388073,0.6141676306312587,0.06643663515781519,0.07777226230178187,-0.7825524324646027
3.33,-0.8677556663648186,-6.948603499875476,1139.0363264442647,-0.35471956306237545,-3.529095061221783,40.555763859100715,0.01908602328028689,0.28675275241464526,-11.20384077103253,-0.008044447503394267,0.0467369736335807,3.297043544125111,0.6269859267631963,0.06786568754608602,0.0768386519937999,-0.7722896011627902
3.34,-0.8713015032743087,-6.983880587859656,1139.4413239204937,-0.35447815304476116,-3.5259614377676063,40.44381725488709,0.025636742100446447,0.27169779686255235,-11.199144656090509,-0.0068247813119206415,0.04753714657589931,3.28828573545238,0.6395993539440555,0.06927870705272277,0.07588403026942628,-0.7618446021471749
3.35,-0.8748455151897219,-7.01912676144752,1139.8452022349848,-0.3542018181220914,-3.5230198405961777,40.331909442182884,0.01715292237234114,0.27928969611380966,-11.189880421121496,-0.005011676793440107,0.04771418324961083,3.2795330283363113,0.6520057883801404,0.07067659085134811,0.07490967049512162,-0.7512218317220732
3.36,-0.8783868413899165,-7.054342705280102,1140.2479620227707,-0.35407080051473805,-3.520156052480556,40.22006372608842,0.008394096091397824,0.29280705920554606,-11.17939652519242,-0.0031473042450828347,0.047689035060654104,3.2707878292577655,0.6642032359962945,0.07205959766408755,0.07391299424099032,-0.7404260737403141
3.37,-0.8819270976015459,-7.089529573204708,1140.649603900617,-0.3539912466040858,-3.517231630969004,40.108307594086234,0.006376765322675334,0.29417526140909955,-11.171419046079453,-0.0015277625518316294,0.04794763115098435,3.262049952545294,0.6761898086610744,0.07342642045097543,0.07289390328174868,-0.7294622723423708
3.38,-0.8854666431648381,-7.124687204782148,1141.0501286477927,-0.3539182483359398,-3.514299415938137,39.99662988899011,0.006442903404307944,0.29279931450328833,-11.164025423176025,3.386373812413535e-05,0.04823000815642061,3.2533188317203376,0.6879638436704489,0.07477680801226531,0.07185374221988208,-0.718334669627963
3.39,-0.8890054716323834,-7.159815588238507,1141.4495369237334,-0.353846625804336,-3.511374659293777,39.88502728408417,0.007146499085109875,0.2912596286505712,-11.15668747221923,0.00158983293276114,0.04846515982465187,3.2445945011295114,0.6995239481826226,0.07611055626059146,0.07079299868018242,-0.7070470865243239
3.4,-0.8925435804091053,-7.194914795071852,1141.8478294654112,-0.3537743700690526,-3.50846189872874,39.77349861506303,0.007759443045704943,0.29026877666961454,-11.149260867913656,0.003160670267118795,0.04863345987802815,3.235876953987914,0.7108685964492223,0.07742739457641619,0.0697120347521096,-0.6956039202243728
3.41,-0.8960809565274266,-7.229984915671163,1142.2450070783816,-0.3537005256614998,-3.505560427750688,39.66204377838107,0.007796039788281093,0.2895234456329802,-11.14181348243674,0.00475697011265014,0.04874326263171676,3.22716617360291,0.7219961881651062,0.07872706836422033,0.06861119869382112,-0.684010005670318
3.42,-0.8996175921490488,-7.26502605138938,1142.6410705307608,-0.35362628033574744,-3.5026676528338703,39.55066302308064,0.007662501574342744,0.2886851788140209,-11.134413197660482,0.0063642733422566555,0.04880385168572898,3.218462138118285,0.7329052856228189,0.08000932468870918,0.06749079640109154,-0.6722699848194758
3.43,-0.9031534841897083,-7.300038296358312,1143.0360205558072,-0.3535516933390479,-3.499783224444896,39.43935615151686,0.007503923474256194,0.287876874112311,-11.12703265384263,0.007975860910348237,0.04881246478346613,3.2097648323172647,0.743594638511165,0.08127392240455329,0.06635113087295239,-0.6603882962209702
3.44,-0.9066886378322254,-7.335021739329357,1143.4298578818539,-0.3534778623830869,-3.496907717229452,39.3281227904954,0.007350547707402785,0.28714440137581665,-11.119661675851543,0.00958934186120121,0.048768325865402945,3.2010742455734524,0.7540631164994935,0.0825206358139178,0.0651925242506311,-0.648369348101001
3.45,-0.9102230575496604,-7.369976462463374,1143.8225832443613,-0.35340485861174814,-3.494040088404803,39.2169629025813,0.0072304226007844155,0.28634649046607835,-11.112330193465121,0.011202923371650781,0.048675352891813926,3.1923903635700444,0.7643096100011786,0.08374924153397424,0.06401531356077918,-0.6362175805165832
3.46,-0.9137567468767279,-7.404902547377437,1144.214197376817,-0.3533324296886643,-3.4911798558885065,39.10587632981498,0.007160419001831618,0.28542540051080906,-11.105050373289963,0.012814862250098973,0.04853520368589433,3.1837131716110076,0.774333081018867,0.08495951902776945,0.06281984192588454,-0.6239374223561521
3.47,-0.9172897080507507,-7.439800076115373,1144.6047010077605,-0.3532600198970409,-3.488327836221727,38.99486263804271,0.007137121941036856,0.2845019941514325,-11.09779634807174,0.014423444663935298,0.0483447798146209,3.175042655228158,0.7841326114764794,0.08615125246601207,0.06160645982887006,-0.6115332762818717
3.48,-0.9208219440334847,-7.474669131882489,1144.9940948637598,-0.35318750866508714,-3.4854845589617245,38.88392145893055,0.0071454121937079415,0.28365034496003544,-11.090552315329848,0.01602747391360291,0.04810223085496643,3.166378800853774,0.7937073560495483,0.08732423350533738,0.06037551396068096,-0.5990095343142218
3.49,-0.9243534589618917,-7.509509799464287,1145.3823796691977,-0.35311542093511067,-3.4826499681407816,38.773052555337046,0.007156789187685328,0.28285375232376153,-11.083321943890642,0.017626467905941186,0.0478081287197801,3.157721596137419,0.8030565584552968,0.08847826395820406,0.059127344712267826,-0.5863705764080949
3.5,-0.9278842560973773,-7.544322163483904,1145.7695561460673,-0.35304390565459853,-3.479823948438013,38.662255699308666,0.007155805609773494,0.28209094941945584,-11.076109808597206,0.019219522700285784,0.04746323608696764,3.1490710279023224,0.8121795421594101,0.08961315224618216,0.057862294794133275,-0.5736207635294595
3.5100000000000002,-0.9314143375403354,-7.579106308180216,1146.1556250136289,-0.35297261450716216,-3.4770063665709574,38.551530662112256,0.007143776081963597,0.2813431241520625,-11.06891987398235,0.020805173775894206,0.04706833009851205,3.1404270819066684,0.8210757205485129,0.09072871414130577,0.05658071029630328,-0.5607644342594053
3.52,-0.9349437050322317,-7.613862316663638,1146.5405869890337,-0.35290136544571804,-3.4741970848919395,38.4408772177482,0.007123370201470454,0.28058473559719455,-11.061757626730587,0.02238206206718427,0.04662432500120731,3.1317897444957294,0.8297445813906246,0.09182477497385534,0.05528293864713252,-0.5478059059993775
3.5300000000000002,-0.938472360023104,-7.648590270938396,1146.9244427874826,-0.3528301716289693,-3.471395962432426,38.330295142995986,0.007097637713059564,0.2797833706707936,-11.054630111301432,0.0239489665779271,0.046132271316656016,3.123159002663861,0.8381856816111349,0.09290116920561323,0.05396932841684788,-0.5347494762714202
3.54,-0.9420003038428539,-7.683290252917279,1147.3071931238992,-0.35275904756994425,-3.4686028603340744,38.21978421424413,0.007069843406391802,0.27890722024392994,-11.047544243288188,0.025504660216872633,0.045593205421066575,3.114534843430378,0.8463985875088142,0.09395773223794773,0.052640228308573685,-0.52159943982084
3.5500000000000003,-0.9455275352973922,-7.717962343490808,1147.6888387086706,-0.35268784122293145,-3.4658176926483804,38.10934419587951,0.00704791384743218,0.2779456355430802,-11.040502330356352,0.02704763252209836,0.04500769316580513,3.105917253740945,0.8543830151453408,0.09499431224982399,0.051295988984846594,-0.5083600464103358
3.56,-0.9490540506399701,-7.75260662251562,1148.0693802475962,-0.3526162320917494,-3.4630404269376127,37.99897484015107,0.007044490325667941,0.2769093684838288,-11.033502019907978,0.028576086442559892,0.04437582453329945,3.097306220466744,0.8621388320462653,0.0960107703429282,0.049936963089870556,-0.495035500309103
3.5700000000000003,-0.9525798459286902,-7.787223169875382,1148.4488184461177,-0.35254389978689316,-3.460271041250739,37.88867589711109,0.007071746663751223,0.2758117356237528,-11.02654039432899,0.030088202953168823,0.04369763759025336,3.088701730488552,0.8696659163731544,0.09700696828284293,0.04856350311668213,-0.4816300021062259
3.58,-0.956104915250357,-7.821812067208505,1148.8271540059607,-0.35247070638725697,-3.457509708915635,37.778447076898885,0.007125569018912469,0.2747049320594371,-11.019605912449547,0.03158194015764672,0.04297242894707257,3.0801037709976984,0.8769642405494006,0.09798277001478278,0.04717595580318274,-0.4681477123921663
3.59,-0.9596292506704751,-7.856373397952661,1149.2043876250411,-0.352396701068471,-3.454756803492362,37.66828804872837,0.007185142744060796,0.27368101758602537,-11.01267819080634,0.03305502763536684,0.04219873495072232,3.0715123295039435,0.884033873651189,0.09893804171888124,0.04577466198615847,-0.4545927507441879
3.6,-0.9631528447223877,-7.890907245790622,1149.5805200009324,-0.352321977130682,-3.452012703425811,37.55819848125698,0.0072286561119723385,0.272831523136859,-11.005736961666821,0.03450523215489085,0.04137510927441198,3.0629273936002765,0.8908748929669813,0.09987265006146546,0.04435996182532044,-0.44096923305005037
3.61,-0.9666757037591759,-7.925413698436925,1149.9555518270372,-0.352247507280924,-3.449277683004938,37.44817807534134,0.007228426430085904,0.27219017394510076,-10.998774740160734,0.035931495195904294,0.040501386769834904,3.054348952577168,0.8974874700513041,0.10078647120416148,0.04293218538758324,-0.4272812301419877
3.62,-0.9701978485004757,-7.959892847797413,1150.329483792421,-0.3521751784293158,-3.4465519082415432,37.33822656531128,0.007150667739308479,0.27173060229923124,-10.991797330069883,0.03733397942995437,0.03957873416058488,3.0457769974897344,0.9038718744546526,0.10167939117960263,0.04149165224771469,-0.413532766013956
3.63,-0.973719300268796,-7.994344785782102,1150.7023165858627,-0.35210685711589984,-3.443835524688695,37.22834368973237,0.006963324846480455,0.2714222442566828,-10.984811454339427,0.03871287415402551,0.03860843849632924,3.037211519368626,0.9100283835108657,0.10255129700879846,0.04003868223839169,-0.39972786053304193
3.64,-0.9772400787077459,-8.028769599461805,1151.0740508939996,-0.352042815254784,-3.441128287405021,37.11852925497264,0.006685386016522538,0.2711991409182977,-10.977831440819367,0.04006760229320051,0.037593263424450386,3.028652506542659,0.9159573560948646,0.10340208910323807,0.038573614104647234,-0.38587048428975984
3.65,-0.9807602016914246,-8.06316737080695,1151.444687401209,-0.35198164407351795,-3.4384295398800537,37.00878313886188,0.006389637745034823,0.2709580281922228,-10.970879632694894,0.041396779040211606,0.03653752888078567,3.020099944493002,0.9216592370233536,0.10423168198756283,0.037096806524555,-0.3719645559386413
3.66,-0.9842796866869191,-8.097538181210611,1151.8142267916696,-0.3519218672893658,-3.435738604103727,36.899105223479154,0.006150328799226358,0.270594520549527,-10.963978637229065,0.04269901389522005,0.03544557075299528,3.0115538186110395,0.9271344794187497,0.1050399915391019,0.03560861914071121,-0.3580139891659262
