time,pos_x,pos_y,pos_z,vel_x,vel_y,vel_z,acc_x,acc_y,acc_z,omg_p,omg_q,omg_r,orient_0,orient_1,orient_2,orient_3
0.0,0.0,0.0,1000.0,0.0,0.0,0.0,0.0,0.0,0.0,0.0,0.0,0.0,0.9990482215818578,-0.043619387365336,0.0,0.0
0.01,-2.506979663904587e-42,7.2239776520245285e-12,1000.0000000000825,-2.0895002268942907e-39,4.397226980365283e-09,5.026053437268847e-08,-1.68295315514048e-36,2.710329438887613e-06,3.0979207244199215e-05,1.3612864816002073e-36,-2.8138345360000644e-42,7.312555771765554e-37,0.9990482215818578,-0.043619387365336,1.9131479494042154e-41,4.381702524998197e-40
0.02,-5.502808594902961e-41,1.5856597037980772e-10,1000.0000000018124,-4.586443190248073e-38,9.65189258201107e-08,1.1032163703302062e-06,-3.6940742760163673e-35,5.949160396498899e-05,0.000679992144894988,2.98801743744816e-35,-6.176353598824106e-41,1.6051025595040586e-35,0.9990482215818578,-0.043619387365336,4.199350768927167e-40,9.617816475349663e-39
0.03,8.341089000538926e-40,-2.403523307388668e-09,999.9999999725276,6.952073688554213e-37,-1.4630219034833697e-06,-1.672241687690036e-05,5.599431959053499e-34,-0.0009017663523976126,-0.010307236572775026,-4.529199762463637e-34,9.362040161511244e-40,-2.4329945468605336e-34,0.9990482215818578,-0.043619387365336,-6.365323798568492e-39,-1.4578566895103104e-37
0.04,-2.16133786882884e-38,5.802508377574023e-07,1000.0000066322974,-1.801417072637638e-35,0.00022221297225458075,0.002539905895221913,-1.450921376843102e-32,0.08894470715280861,1.0166426548103933,1.1736034661026592e-32,-2.4258861078287684e-38,6.304360555850655e-33,0.9990482215818578,-0.043619387365336,1.6493788008154134e-37,3.7775893173667095e-36
0.05,-4.294297037334025e-37,1.1845302218135504e-05,1000.0001353924238,-3.5791812606432153e-34,0.002296377210906947,0.02624771162753562,-2.8827919317205792e-31,0.3242651043673676,3.7063671028793768,2.331797337276331e-31,-4.819919956061169e-37,1.2525943883056478e-31,0.9990482215818578,-0.043619387365336,3.277101003010317e-36,7.505578303045585e-35
0.06,-5.572625042883187e-36,5.6229845853237e-05,1000.0006427100791,-4.644633324773707e-33,0.006840100309964814,0.07818270429903192,-3.7409425506580596e-30,0.5888388760346042,6.730459150974729,3.0259276719016768e-30,-6.254715595666811e-36,1.625467171032131e-30,0.9990482215818578,-0.043619387365336,4.252629699032256e-35,9.739841759721096e-34
0.07,2.1833488942136368e-35,0.0001610337924223819,1000.0018406246699,1.8197626712070624e-32,0.014067128901930195,0.1607880190987479,1.4656975336474706e-29,0.8567797208473842,9.793037021230862,-1.1855554223685565e-29,2.450591287648237e-35,-6.368564048618273e-30,0.9990482215818578,-0.043619387365336,-1.6661760444011955e-34,-3.816060217986682e-33
0.08,-7.327324005275017e-35,0.0003514110583747478,1000.004016646777,-6.107127788864602e-32,0.023986551854598994,0.27416754226096357,-4.918884357525246e-29,1.1271587528536826,12.883483498632838,3.9787267756094536e-29,-8.224190103877072e-35,2.137291587077246e-29,0.9990482215818578,-0.043619387365336,5.591690709400869e-34,1.280670703382913e-32
0.09,2.280957930885935e-34,0.0006542000688825225,1000.0074775410038,1.9011171820593948e-31,0.03659503013561186,0.418283108471171,1.5312231693768078e-28,1.3942311256920474,15.936134688797926,-1.2385569939477492e-28,2.5601476922608048e-34,-6.653277775965707e-29,0.9990482215818578,-0.043619387365336,-1.740664294561982e-33,-3.9866614273253824e-32
0.1,-1.3666073329145964e-33,0.0010956922778161604,1000.0125238200432,-1.1390305128175665e-30,0.05199373304196546,0.5942910880854758,-9.17413154913518e-28,1.696539746033153,19.391538030872386,7.420658869864518e-28,-1.5338803764035579e-33,3.9862279235553093e-28,0.9990482215818578,-0.043619387365336,1.0428971779269419e-32,2.38855818717995e-31
0.11,-1.4087778222202178e-32,0.0017078491259883183,1000.0195208048353,-1.1741784831984274e-29,0.07070003613404087,0.8081051108192039,-9.457225022339406e-27,2.0443369022293427,23.366877716946487,7.649644042104802e-27,-1.581212543040827e-32,4.109234128755117e-27,0.9990482215818578,-0.043619387365336,1.0750786855402764e-31,2.4622638267315124e-30
0.12,-2.959031673606948e-32,0.0025281707616389634,1000.0288971240359,-2.4662734374794742e-29,0.09288490072854125,1.061679273464022,-1.9864188620905205e-26,2.3924368325956262,27.345678127620687,1.6067500961034042e-26,-3.3212178128901636e-32,8.631136684200511e-27,0.9990482215818578,-0.043619387365336,2.2581217790040717e-31,5.1717996529734314e-30
0.13,2.4071594388706757e-31,0.003587372567132676,1000.0410038560719,2.0063027499222826e-28,0.11855227325154546,1.3550586838764191,1.6159431330464006e-25,2.7411105736004195,31.331037223904936,-1.3070842378064473e-25,2.7017962930754087e-31,-7.021392276017933e-26,0.9990482215818578,-0.043619387365336,-1.83697227810449e-30,-4.2072365975818744e-29
0.14,-7.636371589984795e-31,0.004921738374925867,1000.056255727046,-6.364710651490004e-28,0.1477086983413171,1.6883181476140523,-5.12635018393957e-25,3.0897846710333217,35.31640039418111,4.146539185615754e-25,-8.571065182141322e-31,2.2274370211171806e-25,0.9990482215818578,-0.043619387365336,5.827533768468595e-30,1.3346860829954596e-28
0.15,1.3278710479306183e-30,0.006561961018941788,1000.0750035576554,1.1067448595159348e-27,0.1803565085314338,2.0614843256577107,8.914092132099481e-25,3.4401951341649846,39.32161031521084,-7.210321379475888e-25,1.4904027614657095e-30,-3.873238876051361e-25,0.9990482215818578,-0.043619387365336,-1.013336409943202e-29,-2.3208548546930024e-28
0.16,1.1397837185948229e-29,0.008536430970829316,1000.0975718524757,9.499791214520766e-27,0.216493150226445,2.4745280302778343,7.651448605687255e-24,3.7937474826331705,43.362732149966305,-6.1890097889928414e-24,1.2792935009124006e-29,-3.324610937207902e-24,0.9990482215818578,-0.043619387365336,-8.698015845081812e-29,-1.9921155602596236e-27
0.17,2.4185965127355544e-29,0.010882878685948734,1000.1243918725852,2.0158352438550218e-26,0.25611281968605387,2.9273829244192795,1.623620921511782e-23,4.147976630989683,47.41158984284384,-1.3132945530576985e-23,2.714633267341748e-29,-7.054752834025998e-24,0.9990482215818578,-0.043619387365336,-1.8457002365825008e-28,-4.227226331106189e-27
0.18,3.3237165168353406e-29,0.013640141696230184,1000.1559075330052,2.7702284609852594e-26,0.29920934921665787,3.419978511021581,2.2312343731135464e-23,4.499963523147359,51.434818430092506,-1.80477346034486e-23,3.7305401625711254e-29,-9.694878163088997e-24,0.9990482215818578,-0.043619387365336,-2.536423222787842e-28,-5.80919632651232e-27
0.19,3.2096347605142686e-29,0.016847057533603833,1000.1925627487569,2.675144380667627e-26,0.34577657112465454,3.9522442930242767,2.154650484337406e-23,4.846789103019042,55.39905294796138,-1.7428272248356307e-23,3.6024947737370553e-29,-9.362115509426509e-24,0.9990482215818578,-0.043619387365336,-2.4493641686947757e-28,-5.609804074981361e-27
0.2,1.4308422733924247e-29,0.02054246372999983,1000.2348014348617,1.1925686107269537e-26,0.3958083177164413,4.524109773366902,9.605345241467435e-24,5.185534314517572,59.27092843269952,-7.769453706048681e-24,1.6059776879760482e-29,-4.173593458068095e-24,0.9990482215818578,-0.043619387365336,-1.0919166998738637e-28,-2.50082810501663e-27
0.21,-8.112462812509188e-31,0.024764229439970257,1000.2830564377365,-6.761519900408186e-28,0.4492858249797008,5.135360478407259,-5.445953584245626e-25,5.514220001018147,63.02782302057013,4.40505605935119e-25,-9.10543007688449e-31,2.3663070593262224e-25,0.9990482215818578,-0.043619387365336,6.190852609548949e-30,1.4178973727358557e-28
0.22,-1.0650315534069686e-28,0.029539237918807602,1000.3376350343957,-8.876751991786945e-26,0.5060646554950454,5.784345480887269,-7.14963204104651e-23,5.841758820735343,66.7716088611224,5.783106568453414e-23,-1.1953916539709046e-28,3.1065679331633274e-23,0.9990482215818578,-0.043619387365336,8.127560673060476e-28,1.8614636225240929e-26
0.23,1.1167767376008252e-27,0.034896828177593216,1000.3988725712703,9.30803420627987e-25,0.5661168366664543,6.470745052571372,7.497001117294788e-22,6.1681155719555925,70.5018835969291,-6.064082201184717e-22,1.2534704602942011e-27,-3.2575023626626557e-22,0.9990482215818578,-0.043619387365336,-8.522442986855689e-27,-1.951903927047978e-25
0.24,-4.547525087321165e-27,0.04087154128833666,1000.4671638546201,-3.790240040067072e-24,0.6294799367531755,7.194988600627697,-3.052785710223024e-21,6.506005871737394,74.36398739603082,2.4692998173214166e-21,-5.104143176056498e-27,1.3264579407375947e-21,0.9990482215818578,-0.043619387365336,3.4703465771726464e-26,7.948170639156071e-25
0.25,1.4521711963257738e-26,0.04749647178852092,1000.5428871567395,1.2103456952204225e-23,0.6960069886510983,7.955396283369473,9.74852780757778e-21,6.7972919275451265,77.69340224897826,-7.885269461853568e-21,1.6299172758513085e-26,-4.2358073406725e-21,0.9990482215818578,-0.043619387365336,-1.1081934115522433e-25,-2.5381068260282713e-24
0.26,-3.758121306387428e-26,0.05479895202549858,1000.626354887788,-3.1322931874774326e-23,0.7649739715400002,8.743692504953268,-2.5228533765346472e-20,6.9763403198056215,79.73993473724106,2.0406546587741365e-20,-4.218116195613899e-26,1.0961984273624492e-20,0.9990482215818578,-0.043619387365336,2.8679299535000295e-25,6.568449618693844e-24
0.27,4.3052123691972115e-26,0.06279936104474945,1000.7177999813216,3.5882788966285175e-23,0.835362381807705,9.548235715821358,2.8901194710951674e-20,7.088619885146023,81.02329604161314,-2.3377243473440517e-20,4.832171326988008e-26,-1.255778258289362e-20,0.9990482215818578,-0.043619387365336,-3.2854308052308106e-25,-7.524656135177504e-24
0.28,-2.2689711653367447e-25,0.07150940621162616,1000.8173562531385,-1.8911265348693057e-22,0.9068450584541768,10.36528644863191,-1.52317636900127e-19,7.208107596144719,82.38904682786547,1.232048196874054e-19,-2.546693743924918e-25,6.61831383395066e-20,0.9990482215818578,-0.043619387365336,1.7315168506235187e-24,3.965710941914728e-23
0.29,-8.095400822425424e-23,0.08093950783097817,1000.925142807868,-6.747299189859697e-20,0.979155283766992,11.19179610598184,-5.43449974979383e-17,7.120846007489111,81.39164230550587,4.3957914223919846e-17,-9.086279695394824e-23,2.3613302836522593e-17,0.9990482215818578,-0.043619387365336,6.177832116478566e-22,1.414915275748481e-20
0.3,-8.691032202600878e-22,0.09107788658979146,1001.0410250073464,-7.243741950022964e-19,1.0475431407293447,11.973472887935246,-5.834351302241489e-16,6.53138431246096,74.65406430082113,4.719218435990839e-16,-9.754816489846807e-22,2.5350687367262243e-16,0.9990482215818578,-0.043619387365336,6.6323754739658265e-21,1.5190198107816092e-19
0.31,9.272494228336929e-21,0.1018683821817739,1001.1643609363356,7.728374933767874e-18,1.1094451288258873,12.681015849524254,6.224690866976029e-15,5.832134239321922,66.66159939262896,-5.034951509774752e-15,1.0407449597703932e-20,-2.7046741608777816e-15,0.9990482215818578,-0.043619387365336,-7.076105791451037e-20,-1.6206478240854772e-18
0.32,-3.625436464046007e-20,0.11324243354244849,1001.2943669382823,-3.021703934533103e-17,1.164178357911237,13.306619520666054,-2.4337811047197166e-14,5.108696032681008,58.392662850677624,1.968606973348832e-14,-4.069190698865942e-20,1.0574958673194058e-14,0.9990482215818578,-0.043619387365335986,2.766674351910046e-19,6.3365428676789985e-18
0.33,1.3556214649333997e-19,0.12512789835537502,1001.4302184227367,1.1298740868720964e-16,1.2117261861694002,13.850093684550018,9.10038264144712e-14,4.406192516501881,50.363010926291665,-7.361005759044476e-14,1.5215498357220725e-19,-3.954183478412647e-14,0.9990482215818578,-0.04361938736533604,-1.0345135475755415e-18,-2.369357071923378e-17
0.34,-5.051812859467834e-19,0.13745276483267402,1001.5710922911968,-4.2105503558992077e-16,1.251987825887505,14.310286332283924,-3.3913176534423665e-13,3.6281590826424126,41.470048052598656,2.7431273784075553e-13,-5.670155884408019e-19,1.47355257065966e-13,0.9990482215818578,-0.043619387365335834,3.855183012458838e-18,8.829565505000045e-17
0.35000000000000003,-1.8930567074449627e-18,0.15014640268742158,1001.7161812357888,-1.577811929104085e-15,1.2860622420281806,14.699758690873503,-1.2708223383401164e-12,3.2316968211036676,36.93846359916448,1.027927167440119e-12,-2.1247672722318243e-18,5.521816930395734e-13,0.9990482215818578,-0.04361938736533538,1.444645766417379e-17,3.308687132330901e-16
0.36,-4.2263066754295306e-17,0.16316366142237296,1001.864969183965,-3.5225131198235966e-14,1.3170829261848065,15.054326730796209,-2.8371495215591422e-11,2.9710224243586607,33.95893963313875,2.294878665030085e-11,-4.743607558638669e-17,1.2327624239491924e-11,0.9990482215818584,-0.04361938736532225,3.2252156114654e-16,7.386744654443705e-15
0.37,2.3148938848931727e-16,0.17647704573167597,1002.017141862967,1.9294018884010296e-13,1.3455933753256377,15.380202672298466,1.5540046149910207e-10,2.7337024132445724,31.246372901441585,-1.2569841699218475e-10,2.5982374146357144e-16,-6.752264839929155e-11,0.9990482215818545,-0.04361938736541134,-1.7665617925571992e-15,-4.0459747346898806e-14
0.38,-1.0308128175889527e-15,0.19006642570652665,1002.1724691867496,-8.591548017916566e-13,1.3722435094376784,15.684815022312009,-6.919919250635774e-10,2.5969151421015098,29.682825412974434,5.597299307400628e-10,-1.156984537228269e-15,3.006756028937972e-10,0.9990482215818725,-0.04361938736500051,7.866427704157646e-15,1.8016560687194775e-13
0.39,4.704988839655928e-15,0.20391562081461273,1002.3307662116047,3.92148184907268e-12,1.3976017628283357,15.97466153367749,3.158492239329568e-09,2.4748908739377975,28.28836257335301,-2.554802416517414e-09,5.280880526928193e-15,-1.3723882084441156e-09,0.999048221581791,-0.04361938736686728,-3.5905116743300557e-14,-8.22338600333908e-13
0.4,-1.2433066414818898e-14,0.21801261054095328,1002.4918955402377,-1.036262697651647e-11,1.4218450398832843,16.25176241621238,-8.346405298837294e-09,2.370876914658373,27.09863819208959,6.751137824935564e-09,-1.3954876527363561e-14,3.6265747537347636e-09,0.9990482215820344,-0.04361938736128955,9.488028905376263e-14,2.1730530681064017e-12
0.41000000000000003,2.451740900819168e-14,0.23234849472438615,1002.6557554489567,2.043460201256198e-11,1.4453479588330447,16.52040425609528,1.6458709833306476e-08,2.3284382455369426,26.615371742196057,-1.3312919098327666e-08,2.7518345359467753e-14,-7.1514309961475724e-09,0.9990482215815094,-0.04361938737331541,-1.8709936679610626e-13,-4.2851561384542406e-12
0.42,-1.7400308240520596e-14,0.24691756440017248,1002.8222806742948,-1.4502689646860308e-11,1.468480915883954,16.784812616018932,-1.1680949819988462e-08,2.29805005881786,26.265980135561033,9.448343249264927e-09,-1.9530109864539682e-14,5.075458979054617e-09,0.999048221582105,-0.04361938735967292,1.3278673340933897e-13,3.041228281624294e-12
0.43,-5.236857948970786e-13,0.2617162149158826,1002.9914299867577,-4.364780468759352e-10,1.4913089028036202,17.045706912418996,-3.515539728996505e-07,2.269446093922964,25.91423850527438,2.8436066054446584e-07,-5.877850534291882e-13,1.5275279800642252e-07,0.9990482215892993,-0.04361938719489784,3.996396217586524e-12,9.15298756844462e-11
0.44,1.5388720917026443e-12,0.276741517654858,1003.1631701334272,1.2826085632325831e-09,1.5138155517941814,17.303084515100128,1.0330557041914484e-06,2.229722730184741,25.561218197305948,-8.356054121651502e-07,1.727230380231899e-12,-4.488703342197268e-07,0.9990482215599906,-0.04361938786617549,-1.1743573468206395e-11,-2.689642770919323e-10
0.45,-6.506852098162728e-13,0.2919905100025946,1003.3374667537614,-5.423286487415266e-10,1.5360353315610331,17.55692460938732,-4.368095771299477e-07,2.208155130182087,25.207459415488724,3.533211667622834e-07,-7.303292251656492e-13,1.8979698779182275e-07,0.999048221591104,-0.04361938715356476,4.96556510924706e-12,1.1372685099449023e-10
0.46,-7.237798978616669e-12,0.30746005292768686,1003.5142839578546,-6.032511083269151e-09,1.5579691286831097,17.807228484399232,-4.858785574815518e-06,2.205195565388068,24.851008233525523,3.9301148102594394e-06,-8.12370719391391e-12,2.111178222065406e-06,0.999048221684706,-0.04361938500973052,5.52337159870452e-11,1.2650235068377083e-09
0.47000000000000003,2.1848766982115845e-11,0.3231468598046018,1003.693587103274,1.821036054811374e-08,1.5794052957510596,18.054013797378136,1.4667231592621503e-05,2.0506179028928937,24.508777277819615,-1.1863850178211575e-05,2.4523060951975586e-11,-6.373020467672712e-06,0.9990482212713898,-0.04361939447620982,-1.6673419553688217e-10,-3.818730515928018e-09
0.48,-3.232907552755104e-11,0.3390486261728514,1003.8753411713868,-2.6945416280278015e-08,1.600970041656169,18.297205326688605,-2.170273674144076e-05,2.2497701484678996,24.131579245921742,1.7554643187549297e-05,-3.628616160958209e-11,9.429999423155887e-06,0.9990482220412495,-0.043619376843553374,2.4671243026892876e-10,5.650480293457976e-09
0.49,-3.9693997628736e-11,0.355161299942222,1004.0595093379135,-3.308388107241625e-08,1.6219775797139875,18.536874712337983,-2.6646860966305182e-05,2.249984960258246,23.773315911757734,2.1553785677108484e-05,-4.4552551824725485e-11,1.1578257919028294e-05,0.9990482221459042,-0.04361937444657455,3.029162591961189e-10,6.937722397245756e-09
0.5,3.493790271184363e-10,0.3714795229235262,1004.246055869483,2.911980368038052e-07,1.6406013077186512,18.77340507215029,0.00023454060856365264,0.5681931809028775,23.60633954834836,-0.0001897123273150971,3.921430982526609e-10,-0.00010190962687386167,0.9990482166172291,-0.043619501073820316,-2.666211373471737e-09,-6.106451469661894e-08
0.51,-1.2105566343930428e-09,0.3880168288752238,1004.4349643179784,-1.0089664462188158e-06,1.6693006824118692,19.006578156295934,-0.0008126552188121578,7.183725138677854,22.819795135716255,0.0006573305740518406,-1.3587290374481426e-09,0.0003531046953166206,0.9990482387837039,-0.04361899337900771,9.23810422586205e-09,2.1158125604066282e-07
0.52,-3.023898641330517e-09,0.40475945849993317,1004.6262011365505,-2.520338313125593e-06,1.6991792098322807,19.237818958471046,-0.0020299645156778134,14.88365524684118,22.01665987794866,0.0016419727696399572,-3.3940245119847598e-09,0.0008820345765571822,0.9990482645510484,-0.04361840321086609,2.3076236190354072e-08,5.285174228904637e-07
0.53,1.2194420548729395e-09,0.4216622752806346,1004.8197108393172,1.01637220557782e-06,1.696940157477668,19.4702710444597,0.0008186200643379094,-3.1755745480284263,23.42876526111065,-0.0006621553450528857,1.3687020353839438e-09,-0.00035569646475736813,0.9990482042537512,-0.04361978424350271,-9.305911413193728e-09,-2.1313425106144392e-07
0.54,-5.935018274013442e-09,0.43884482752538123,1005.0155864003783,-3.5773360411901883e-06,1.7460805120039475,19.69684880955104,-0.002133256128021584,15.51021167766821,21.678298741128277,0.0023297794372988405,-1.0803279981466308e-08,0.0012536426822667844,0.999048305878558,-0.04361745654295315,4.535493020185827e-08,1.0389292772626909e-06
0.55,-1.447971435580007e-07,0.45705815869860744,1005.2136626328228,-2.3743695432230736e-05,1.8930296760646657,19.91356802809965,-0.002006351491950337,14.522661647274807,21.61390342980697,0.015377096904371938,-8.527680396818172e-07,0.008412125292640507,0.9990502705398242,-0.04357242368016912,1.1129069352920619e-06,2.5523000081441343e-05
0.56,-4.830516831681741e-07,0.47671049291474954,1005.4138747892787,-4.391913758795101e-05,2.0372294421712516,20.129056999767716,-0.002071062205558246,14.536475829338427,21.46499146631905,0.028130912405604842,-4.899118164906068e-06,0.01567595647817385,0.9990550008121643,-0.043463683338485506,3.720664844671575e-06,8.559297346059266e-05
0.5700000000000001,-1.0260452078373397e-06,0.49779195488913663,1005.6162389208997,-6.437965583139637e-05,2.1784197031541948,20.34332891705804,-0.0021096075440575793,14.182710680503947,21.34861176601823,0.04056849017845862,-1.4773472973782595e-05,0.023039322527071568,0.9990624318927365,-0.043291906468515044,7.880807928360351e-06,0.00018222913612495496
0.58,-1.7772150785338738e-06,0.5202704927923925,1005.8207407928147,-8.544202536113844e-05,2.3165524331153082,20.556398784537613,-0.0021563168590720628,13.6930061113573,21.244760202342334,0.052689251962051806,-3.316530370318286e-05,0.03050461366461594,0.9990724514368121,-0.04305875798021226,1.3580230909941952e-05,0.00031592753356687333
0.59,-2.740823618827253e-06,0.5441140758357496,1006.0273664153574,-0.00010741561659896573,2.451577846042128,20.768281303865898,-0.002242151237808698,13.277643961953208,21.135268446933328,0.06449238105828516,-6.272728039445344e-05,0.03807407086088885,0.9990849434993677,-0.04276589632944325,2.0802243954702253e-05,0.0004871866058126933
0.6,-3.927467865746398e-06,0.5692909612435806,1006.2361038463347,-0.00013055260112736125,2.583429985084868,20.9789889737767,-0.0023686994119869343,12.960654372061498,21.017968195436296,0.07597495574416774,-0.00010582976685185428,0.045748664093177474,0.9990997648096442,-0.04241492480375391,2.9502828427312457e-05,0.0006965259961268292
0.61,-5.350674222004886e-06,0.5957695394263636,1006.4469420903685,-0.00015507870003217042,2.7120354155028807,21.18853327430348,-0.0025239674357839456,12.679938985978014,20.89809004505176,0.08713308086867261,-0.0001647125798219491,0.053528775592740566,0.9991167594606247,-0.04200742117916782,3.9625328017316916e-05,0.0009444751528009344
0.62,-7.024326415752801e-06,0.6235180575260926,1006.6598701304836,-0.00018121565106350834,2.837321460664914,21.39692533205543,-0.0026964980532494043,12.3766661281125,20.780574041629546,0.09796292070499188,-0.00024159927702868314,0.061414792510038986,0.9991357695520133,-0.04154496765124804,5.111118591567981e-05,0.001231564040391552
0.63,-8.966445797979249e-06,0.6525030179100395,1006.8748766258861,-0.00020913866008011377,2.9592251209013454,21.604172057918127,-0.002882228530337054,12.037239174437499,20.666354020365052,0.10846142346455423,-0.00033852496595862785,0.0694072001695854,0.9991566138594,-0.04102920164269474,6.387964554349529e-05,0.0015583282358416816
0.64,-1.1197805215541889e-05,0.6826897626801195,1007.0919500204436,-0.00023899198949521127,3.077689831667496,21.810277559344687,-0.0030820134483917497,11.6781425552727,20.553699708947242,0.11862605867329755,-0.0004573994357525955,0.07750654918108363,0.9991790956479705,-0.04046179730194301,7.783518760001055e-05,0.0019253070482996854
0.65,-1.3739214891548066e-05,0.7140435927978626,1007.3110787609971,-0.00027091920780781436,3.19265927521484,22.015245924611545,-0.0032966975255514395,11.315911916783666,20.440892889778823,0.12845431052969042,-0.0006001229419527679,0.08571338382825686,0.9992030174503511,-0.03984442969609229,9.288148490758695e-05,0.0023330399340230202
0.66,-1.6611228844054188e-05,0.7465293892158688,1007.5322514371599,-0.0003050610726813424,3.304079850705453,22.219081896377862,-0.003525072608197361,10.956845704992446,20.327467182330487,0.13794377262969462,-0.0007684444704096048,0.09402809224498246,0.9992281723853985,-0.03917877920659506,0.00010891094850385536,0.0027820680076848224
0.67,-1.98341590521474e-05,0.7801116361009292,1007.7554567734234,-0.0003415556863602549,3.411900523988675,22.421790835503426,-0.003763991178275212,10.597571200728726,20.214138826604817,0.14709214191796238,-0.0009639701012809231,0.10245091504912436,0.9992543446787047,-0.03846653123541586,0.00012580535032796634,0.003272933950676841
0.68,-2.342837725154126e-05,0.8147547790640007,1007.9806834974788,-0.00038053988355826225,3.5160705473762137,22.623377937858436,-0.004010247340174079,10.2343812882819,20.10165229186601,0.15589713237157823,-0.0011882932412789235,0.11098208274650528,0.9992813178030798,-0.037709371853107916,0.00014344557038963168,0.003806180531524457
0.6900000000000001,-2.7417142689630567e-05,0.8504223037042953,1008.2079202501715,-0.0004221019716751634,3.6165469286878835,22.823840508599254,-0.00426136775103601,9.865416831776592,19.989997993934484,0.1643569995436825,-0.0014427121205301755,0.119621645022348,0.9993088583595913,-0.03690900681535031,0.0001616926648280422,0.004382351594094088
0.7000000000000001,-3.1827583107823384e-05,0.8870764094618329,1008.4371555559974,-0.00046626524447823377,3.713297066051827,23.023165281434355,-0.0045158604929294655,9.491294494474722,19.87815611852426,0.17247072455460308,-0.0017281295114175452,0.1283694093105927,0.9993367103456804,-0.036067168250630194,0.0001803811310934908,0.0050019924229217725
0.71,-3.668709695443806e-05,0.924679205774638,1008.6683779313103,-0.0005130484462538579,3.8062890846822977,23.221338250310435,-0.00477230232542599,9.112804189469479,19.76503615813647,0.18023733929792768,-0.002045420513243984,0.13722516609307983,0.9993646161770463,-0.03518559013293364,0.00019934360812993952,0.005665648403357766
0.72,-4.20230826777931e-05,0.9631928020807362,1008.9015758924643,-0.0005624703212884216,3.895491109793551,23.418345409174197,-0.005029270008097136,8.730735829854034,19.64954760527225,0.18765587566724418,-0.0023954602253124535,0.14618870585165003,0.9993923182693888,-0.03426600643624667,0.00021841273488135105,0.00637386492075235
0.73,-4.786293872620686e-05,1.0025793078181517,1009.1367379558134,-0.0006145496138683093,3.9808712665998396,23.61417275197234,-0.005285340300514452,8.345879328721578,19.53059995243273,0.1947253655561402,-0.002779123746925906,0.15525981906814368,0.9994195590384071,-0.03331015113455535,0.00023742115029168738,0.007127187360455778
0.74,-5.423406854666627e-05,1.042800831156618,1009.3738526370416,-0.0006693049005923605,4.062397711921979,23.808806289177316,-0.005539090694476735,7.9590243060355865,19.40710670370044,0.20144484311067495,-0.0031972851167699225,0.16443829566250712,0.9994460808700808,-0.03231975820428352,0.0002562014533107877,0.007926161085800574
0.75,-6.116521110295474e-05,1.0838191414107923,1009.6129082728276,-0.0007267099562221319,4.140047047048335,24.002236446520136,-0.0057892943142375496,7.57088206497493,19.279053155437584,0.20781394427985192,-0.0036505350036061435,0.17372377543088896,0.9994716182099604,-0.03129656227316961,0.0002745755574783745,0.008771325577540071
0.76,-6.868823347415569e-05,1.125595214211755,1009.8538927805746,-0.0007866336183794639,4.21381565232824,24.1944639913748,-0.006035182504326325,7.181980471166202,19.148935010342885,0.21383371458610928,-0.004138800352761999,0.18311554654185086,0.9994958869051205,-0.030242299494494255,0.0002923403484236572,0.009663206537951724
0.77,-7.683544999175453e-05,1.1680899117111094,1010.0967940177387,-0.0008489297209592549,4.283702736086236,24.385491169745148,-0.006276052124798419,6.792821162658679,19.019606904580254,0.21950540109020586,-0.00466191321156028,0.19261284688886296,0.9995186001434584,-0.029158706239657373,0.0003092891333293935,0.010602327699290839
0.78,-8.563917498723675e-05,1.21126409606046,1010.341599841776,-0.0009134520978564034,4.349707506646871,24.57532022763502,-0.0065112000357091925,6.40390577750164,18.893923474313596,0.22483025085290045,-0.005219705627323778,0.20221491436539546,0.9995394711128714,-0.0280475188800589,0.00032521521937834113,0.011589212793812718
0.79,-9.513172279208776e-05,1.2550786294114098,1010.5882981101424,-0.000980054582965808,4.411829172334685,24.76395341104827,-0.006739923097114003,6.015735953744361,18.774739355706814,0.22980951093495194,-0.005812009647375282,0.2119209868649185,0.9995582130012569,-0.02691047378709878,0.0003399119137532578,0.012624385553772668
0.8,-0.00010534540773779302,1.299494373915563,1010.836876680294,-0.001048591010182367,4.470066941474226,24.95139296598873,-0.006961518169068211,5.628813329436119,18.664909184923822,0.23444442839711913,-0.006438657319037585,0.2217303022809023,0.9995745389965122,-0.025749307332176938,0.0003531725236369013,0.013708369711425996
0.81,-0.0001163082109243136,1.3444723716753504,1011.0873238278339,-0.0011189339432556723,4.524424889447492,25.137656898249016,-0.007175209477349485,5.243609480237037,18.56650295161581,0.23873658753707236,-0.00709933697921438,0.23164208320250046,0.9995881601610649,-0.02456574350654606,0.0003647891627876176,0.014841683939159907
0.8200000000000001,-0.00012802955110312314,1.3899744356520727,1011.3396296195889,-0.0011910361793795621,4.574927940745546,25.322830724136598,-0.007379910102861962,4.8604672029638385,18.4782294398472,0.24268901728082445,-0.007793121349681119,0.24165548665946734,0.9995987784524272,-0.023361453268380326,0.00037454883266829813,0.016024825234305866
0.8300000000000001,-0.00014051387759131062,1.4359625851781463,1011.5937846019249,-0.0012648719955103598,4.621606601495819,25.50701803359193,-0.007574449828104186,4.479694818299325,18.39789758576566,0.24630513330425244,-0.00851891834230313,0.25176965213026875,0.9996060933905814,-0.022138093378059703,0.00038223716609945424,0.01725828479143996
0.84,-0.00015376563965066278,1.4823988395882852,1011.8497793212133,-0.001340415668843423,4.664491377887858,25.69032241675659,-0.007757658434647714,4.101600646542635,18.323316315504925,0.24958835128753729,-0.00927563586711165,0.261983719093175,0.9996098044954823,-0.02089732059580618,0.00038763979588636637,0.0185425538050737
0.85,-0.00016778928654296674,1.5292452182172034,1012.1076043238254,-0.001417641476574113,4.703612776111209,25.87284746377217,-0.00792836570406411,3.726493007992894,18.252294555198745,0.25254208691086005,-0.010062181834137943,0.27229682702645697,0.999609611287085,-0.019640791681841692,0.00039054235483431505,0.019878123469718623
0.86,-0.0001825892675300093,1.5764637403996145,1012.3672501561325,-0.0014965236958977878,4.739001302355419,26.05469676478025,-0.008085401417924933,3.3546802229492427,18.18264123098086,0.2551697558544017,-0.010877464153413246,0.2827081154083849,0.9996052132853448,-0.01837016339638823,0.0003907304757485807,0.021265484979886232
0.87,-0.00019817074045036168,1.6240166076149702,1012.6287076805253,-0.0015770244967648252,4.770688701611598,26.235962991521745,-0.008227686812792028,2.986476594871099,18.112347667810855,0.2574749248838435,-0.011720330444088526,0.29321673171362045,0.999596308575594,-0.01708708245252071,0.0003879906728857245,0.022705127561947893
0.88,-0.00021454460523220368,1.6718674973879957,1012.891970320319,-0.0016590079357141473,4.798716757739956,26.41665033635691,-0.008354884248505527,2.6222449129194354,18.040883294963244,0.25946238511556563,-0.012589139746455317,0.3038218882171332,0.9995825836174228,-0.015793114144306345,0.00038211660351397713,0.024197524493068886
0.89,-0.00023172454735123654,1.7199808032883621,1013.1570327411604,-0.0017422904734461005,4.8231321245607415,26.596720069376193,-0.008467015611532907,2.262371487174433,17.968434585522633,0.2611375216112344,-0.01348201408610777,0.3145228286291979,0.9995637192306526,-0.014489784268603041,0.0003729053900509848,0.02574314131328839
0.9,-0.0002497242706603824,1.7683209236097368,1013.4238896168921,-0.0018266882566548123,4.843981488023017,26.776133177496963,-0.008564105160263237,1.907242782891919,17.895192743159793,0.26250572335097855,-0.014397073924972054,0.32531879686747867,0.9995393961978971,-0.013178618361691947,0.0003601541777751836,0.027342443511601085
0.91,-0.0002685574790125635,1.8168522566457876,1013.6925356213567,-0.0019120174320344104,4.861311534075841,26.9548506476366,-0.008646177153085577,1.5572452653277187,17.821348971545497,0.26357237931492694,-0.015332439724974337,0.3362090368496398,0.9995092953017704,-0.011861141959854212,0.0003436601119650096,0.02899589657700165
0.92,-0.00028823787626070207,1.8655392006901823,1013.9629654283968,-0.001998094146279022,4.875168948668276,27.132833466712476,-0.008713255848388992,1.2127653997376586,17.74709447435052,0.2643428784832085,-0.016286231948040786,0.34719279249334556,0.9994730973248861,-0.01053888059937098,0.000323220337898899,0.030703965998484763
0.93,-0.00030877876868693973,1.914346266720996,1014.2351736810431,-0.0020847358535745378,4.8856011153220065,27.310046719991032,-0.008765371000755686,0.8741842230457356,17.67273032440864,0.2648226593643999,-0.017256553866968182,0.3582693020818428,0.9994304822150397,-0.009213353732877568,0.0002986331040184899,0.03246711523734533
0.9400000000000001,-0.0003301866334636112,1.9632399013067294,1014.5091544930611,-0.002171782467012942,4.892667399827745,27.486525890456996,-0.00880264677338212,0.5417895292216088,17.600444827256158,0.2650180112217777,-0.018241213495299308,0.36943770711547647,0.9993811155802695,-0.007885976313666113,0.00026971560790104956,0.03428577292489299
0.9500000000000001,-0.0003524622006500896,2.012188179933432,1014.7849015328086,-0.0022590928002272775,4.896437251787352,27.66236570507427,-0.008825286780079261,0.21579064259444536,17.534014510003267,0.2649359392806543,-0.019237770367882996,0.3806970676458685,0.9993246509608331,-0.006558075352449623,0.00023630099397871474,0.036160338380877684
0.96,-0.0003756060211548161,2.0611592288643172,1015.0624084547582,-0.0023465262560245885,4.896980435138633,27.837662737579926,-0.008833497111319264,-0.10360555858851961,17.477265408335406,0.2645834710845505,-0.020243776273906944,0.39204644118569393,0.9992607415208072,-0.005230975118565567,0.00019822290378432777,0.03809121001133959
0.97,-0.00039961864588623287,2.1101211743626,1015.3416689133829,-0.0024339422372119212,4.89436671381939,28.01251356171105,-0.008827483857574283,-0.41619219608006053,17.43402355793801,0.2639676341769874,-0.021256783002558875,0.4034848852476282,0.9991890404242683,-0.0039059998813513663,0.0001553149788507297,0.04007878622231893
0.98,-0.0004245006257527812,2.159042142691493,1015.6226765631558,-0.0025212001465963188,4.888665851767429,28.18701475120472,-0.008807453109316469,-0.7217623916329421,17.408114994496515,0.26309545610148577,-0.02227434234302648,0.41501145734434625,0.9991092008352931,-0.0025844739101444905,0.00010741086071076289,0.04212346541985587
0.99,-0.0004502524074109165,2.2078902906801665,1015.9054251371979,-0.0026081600526155807,4.879947645892025,28.36126401878544,-0.008773607700125455,-1.0201106230978114,17.40330977226081,0.26197397102909953,-0.02329400514094044,0.4266252213909812,0.9990208756124246,-0.001267719998226023,5.4344538619403195e-05,0.04422564616732785
1.0,-0.00047686925023117854,2.256635296033842,1016.1899122819384,-0.0026947151436236888,4.868283533670279,28.535415749992065,-0.008725988409759746,-1.3110988439456155,17.4205924665362,0.26061054289829316,-0.024313275293184767,0.43832555987098565,0.9989237024117142,4.301250554066059e-05,-4.032696491964856e-06,0.046385734856771894
1.01,-0.000504338933682861,2.3052490295126193,1016.4761412866727,-0.0027808063658399758,4.853747318225899,28.70970605075857,-0.008664402341523872,-1.5946863053448932,17.456931080615934,0.2590130111616451,-0.02532958899804458,0.4501123146331928,0.9988172969677047,0.0013465801568057273,-6.784460522506547e-05,0.04860414916890302
1.02,-0.0005326486551174763,2.353703532549473,1016.764115879848,-0.002866378382204318,4.836412986787289,28.88437738684822,-0.008588638413025198,-1.8708398305855196,17.508981031047725,0.2571892522782682,-0.02634037718521163,0.4619853632762068,0.9987012733089131,0.002641847753159766,-0.0001372130065856431,0.0508813076629693
1.03,-0.0005617859500477704,2.4019708992955517,1017.0538399229227,-0.0029513721233234273,4.816354493582651,29.059669769634265,-0.008498523055996073,-2.1395307504863204,17.57355924531909,0.255147148300669,-0.027343070356976473,0.4739445969992915,0.998575244759751,0.003927682993739062,-0.00021225910449127505,0.05321762787347713
1.04,-0.0005917458109924686,2.450024386423659,1017.345320210476,-0.0030356462157786358,4.793645065131946,29.23576908719223,-0.00839470994972703,-2.400829794221227,17.651044230206086,0.2528947046247965,-0.02833508959073764,0.48599020691840406,0.9984388091179568,0.005203017561488412,-0.0002930905391636097,0.055613504737710553
1.05,-0.0006225305135434936,2.4978383860127242,1017.6385664017923,-0.003118978901846517,4.768357217220509,29.412808366712202,-0.00827866072572625,-2.654904770877728,17.745292998835158,0.2504400471130882,-0.029313846758834847,0.4981226770707145,0.9982915490167507,0.006466845630754952,-0.00037980170349815137,0.05806931112280575
1.06,-0.0006541426366613702,2.5453873374358027,1017.933588275483,-0.0032011450754816486,4.740563436028788,29.590918433520777,-0.00815187066988493,-2.9019275333029846,17.860307457783744,0.24779130664588356,-0.030276753350180957,0.5103425036947118,0.9981330464576915,0.007718163978898147,-0.0004724864385872429,0.060585418976590574
1.07,-0.000686583611108896,2.5926458196319597,1018.2303956005561,-0.0032819287297894033,4.710336816213658,29.77021271801573,-0.008015831471676449,-3.1420041926043467,17.998211100985195,0.24495662796400378,-0.031221226033160004,0.5226501816717595,0.9979628812578606,0.008955976489182503,-0.0005712368376420651,0.06316220088351925
1.08,-0.0007198410716793995,2.639590088471304,1018.528998030643,-0.003361223187133994,4.677757763474381,29.95059564486248,-0.007871991608443306,-3.374450951484376,18.13855768297272,0.24194432234646726,-0.03214474370918819,0.5350461895769204,0.9977806069871337,0.01017937242463474,-0.0006761239925126477,0.06580003707731928
1.09,-0.0007538935350040768,2.686197508157014,1018.8294051431183,-0.0034389940288035354,4.642911515593236,30.131833500688458,-0.007721770997359302,-3.5980619389398765,18.245983953453123,0.23876281114228703,-0.03304482641132371,0.5475309952079437,0.997585759867836,0.011387497478278516,-0.0007872051146315241,0.06849931284734793
1.1,-0.000788719355665536,2.732445462589636,1019.1316265140015,-0.0035152081202765727,4.605883396228607,30.313690117122643,-0.007566589048025005,-3.8116220056388217,18.284861556125357,0.23542051765664734,-0.033918994903619076,0.560105066171043,0.9973778758139914,0.012579498346015159,-0.0009045371687475197,0.07126041357281146
1.11,-0.0008242971086947031,2.7783116688717793,1019.4356702144436,-0.0035898354390827996,4.566761051961013,30.49588388281009,-0.007407797405520236,-4.0141014643803254,18.226880710201023,0.23192589142648448,-0.03476479389995295,0.5727687273590895,0.9971564858250149,0.01375453607314315,-0.0010281737318485874,0.07408372240803965
1.12,-0.0008606069664110473,2.8237762583673347,1019.7415334118649,-0.0036628685115456558,4.525648960422154,30.677803923018406,-0.00724625671778859,-4.205814419290548,18.09675937828991,0.22828757205449413,-0.03557994164595685,0.5855212696158404,0.9969210852908528,0.014911875675487499,-0.0011581438344362908,0.07696960638671448
1.1300000000000001,-0.0008976298047250446,2.8688204259002235,1020.0492084706924,-0.0037343097965261626,4.482659013167961,30.858694325506438,-0.007082611353022152,-4.387666902294929,17.9425737593727,0.224514282865602,-0.03636223282641358,0.5983615282958687,0.9966711539158057,0.016050827966940018,-0.0012944656945092577,0.07991842544151984
1.1400000000000001,-0.0009353472570555251,2.9134256154558003,1020.3586868291462,-0.003804159107916885,4.43790114656112,31.037893249823224,-0.006917544818242786,-4.560435134448313,17.806359602045127,0.22061476369958546,-0.0371094889166781,0.6112882473659061,0.9964061678118327,0.017170713266755046,-0.0014371553838061668,0.08293053601395801
1.1500000000000001,-0.0009737461602789503,2.9575749575688692,1020.6699536815638,-0.003872397718837218,4.39147158924442,31.215392029988976,-0.006752017057951094,-4.723982248431192,17.68778987599857,0.21659786578624723,-0.03781971387314497,0.6242995541620623,0.9961255787852781,0.018270916078083232,-0.0015862144958451031,0.08600627067984931
1.16,-0.0010128155453426805,3.001252293918501,1020.9829915895094,-0.003938999084572,4.343460789913657,31.391457415180714,-0.006587104578263165,-4.877786367422152,17.568675016625175,0.21247248732370047,-0.03849098859649602,0.6373933160142352,0.9958288283938705,0.01935084796762202,-0.001741638519310644,0.08914595195189776
1.17,-0.0010525438511505506,3.0444417342520476,1021.2977838151315,-0.004003943237732633,4.293959197364719,31.566334701368124,-0.006423897725940305,-5.021492618309579,17.435019839683658,0.2082475108248512,-0.039121428065560834,0.6505674640121681,0.9955153528582907,0.020409932989713858,-0.0019034201362749443,0.09234990042520083
1.18,-0.0010929155772494217,3.0871291326467456,1021.6143182829859,-0.004067253593113793,4.24305739448271,31.74012191586264,-0.006263575066084494,-5.155851942753213,17.30079137704049,0.203931714693537,-0.039709369317620265,0.6638203540402727,0.9951845535805997,0.021447676596249236,-0.0020715337351325867,0.09561842433179182
1.19,-0.0011339136336272746,3.129301047029492,1021.9325847989438,-0.004128971070533258,4.190846018258691,31.91285766201246,-0.006107350760532939,-5.282061486629858,17.191239615961862,0.19953383532483684,-0.04025323899213809,0.6771505133906672,0.9948358179132951,0.022463617083615002,-0.0022459463226476304,0.09895182691511878
1.2,-0.0011755211754682629,3.1709442932341116,1022.2525737757117,-0.004189139075792973,4.1374132419598,32.0846226344158,-0.005956363302082878,-5.401176110116148,17.127738278643207,0.1950625739422229,-0.04075150176073301,0.6905565339058233,0.9944685279139676,0.023457305561811446,-0.0024266223591814006,0.10235040453801761
1.21,-0.0012177229199491863,3.2120472887871583,1022.5742793907459,-0.004247816267294855,4.082831820517742,32.25576195695865,-0.005811277046382658,-5.513352532086272,17.107208340975234,0.19052641240342688,-0.04120285873460329,0.7040374083912285,0.994082032750013,0.02442837275479929,-0.0026135104985481406,0.10581441059275833
1.22,-0.0012605041872120492,3.252599069505539,1022.8976972747832,-0.004305067191296352,4.027168557030979,32.426722829333634,-0.005672573321200684,-5.618400768147531,17.117131454540495,0.185933747885943,-0.04160610229608063,0.7175922844333471,0.9936756688924526,0.025376480119365045,-0.0028065532928701923,0.10934408188398109
1.23,-0.0013038505556699808,3.292588891335204,1023.2228240805698,-0.004360957753561346,3.9704913510447613,32.597909361361886,-0.005540744019815748,-5.716126211194796,17.145639985177098,0.18129292569533478,-0.041960069937986455,0.7312204075414783,0.9932487661016235,0.026301301095257825,-0.0030056908783917995,0.11293965498434358
1.24,-0.0013477491364232096,3.332007315229019,1023.5496625377568,-0.00441556189315715,3.912874717282178,32.769467368402466,-0.005416346380970751,-5.806311099506296,17.184867481903318,0.17661198284390145,-0.04226386703623048,0.744921605279694,0.9928006142760627,0.027202580198938335,-0.0032108490604213155,0.1166013652942008
1.25,-0.0013921876064173268,3.370845383929061,1023.8782176194984,-0.004468956514927658,3.854395612691939,32.94144730732687,-0.005299961767985549,-5.888729123018933,17.228424671271277,0.1718988425266377,-0.04251669786518868,0.7586959200980614,0.9923304885979222,0.028080088187335876,-0.0034219483534979416,0.12032944778111099
1.26,-0.0014371538913206948,3.409094409505889,1024.2084942469107,-0.004521221711850817,3.7951312115486764,33.113889126782205,-0.005192193198827525,-5.963195358294539,17.270667908225423,0.16716137609900647,-0.0427178156810416,0.7725433922948813,0.99183765749209,0.028933607996167458,-0.003638907158312485,0.12412413277945683
1.27,-0.0014826373259704039,3.4467472311270044,1024.5404970249222,-0.004572455678432177,3.7351599017983004,33.28677388598039,-0.005093766605819913,-6.029760291574492,17.310179976589634,0.1624071611761383,-0.04286675136562786,0.7864640479897886,0.9913213510934303,0.029762991574794936,-0.0038616319036505527,0.12798562428240065
1.28,-0.0015286277426066074,3.483797226988828,1024.8742304468533,-0.004622762998586242,3.6745604997838326,33.46006185756255,-0.005005451307131729,-6.088557503121077,17.34703548911475,0.15764367168980906,-0.0429631337960439,0.800457908297686,0.9907807860213389,0.03056811523275626,-0.004090024792499804,0.13191411698528005
1.29,-0.001575115557596957,3.520238090294753,1025.2096987187929,-0.004672245952741402,3.613411798798697,33.63370715883716,-0.004927926510765608,-6.139682320808316,17.380777819025315,0.15287831601840282,-0.043006656686539434,0.8145249615438757,0.9902151699245768,0.03134886827379591,-0.004323986082426237,0.1359098032076826
1.3,-0.001622094351832421,3.556065219135532,1025.5469044899182,-0.004720994290648505,3.5517924645021024,33.80763065631675,-0.004861382510307267,-6.183022126165563,17.408060349995385,0.14811814769851164,-0.04299736474423089,0.8286650182739861,0.9896236618895348,0.03210521031607405,-0.004563405507473878,0.1399728624433751
1.31,-0.0016695587738521488,3.591274586797519,1025.8858498841355,-0.004769093534453249,3.4897811194919717,33.98174199834661,-0.004805844649194939,-6.218394143698694,17.424561439833354,0.14337010055005764,-0.042935421094352715,0.8428778290542668,0.9890054046186112,0.03283712470045733,-0.004808169251256568,0.1441034698589437
1.32,-0.0017175038712578163,3.625862449290196,1026.22653672227,-0.004816631207489102,3.4274556289277993,34.155953778928186,-0.004761521865486441,-6.245701336555461,17.427110906514415,0.13864103258970764,-0.04282104751264857,0.857163111724177,0.9883595324632407,0.03354460589538118,-0.005058162288460975,0.14830179537600435
1.33,-0.0017659267516842493,3.6598265228139337,1026.5689652594467,-0.0048637052018051866,3.364889940022695,34.330193874261184,-0.004729573463336235,-6.265290461191973,17.418498792393713,0.1339374101925374,-0.04265476869298752,0.8715204150715418,0.9876851366419018,0.034227705835934555,-0.005313263354333249,0.152567981801971
1.34,-0.0018148251868867055,3.693164994310366,1026.913135246035,-0.004910416752152138,3.302156736909002,34.50439508727189,-0.004711465129125578,-6.277651345647521,17.40343661705935,0.12926557347488601,-0.04243720698500529,0.8859492333847498,0.9869812944677251,0.03488649498349998,-0.005573349172627662,0.15690216320308983
1.35,-0.001864196948944048,3.7258760509505033,1027.2590464321581,-0.0049568670949093835,3.239328703103604,34.67849022328721,-0.004708662698525831,-6.28327388767553,17.386636836372865,0.12463186249157077,-0.042168984785922126,0.9004490609256344,0.9862470832470652,0.03552104380848726,-0.005838296466118354,0.16130447364134765
1.36,-0.0019140398972339943,3.7579579854842513,1027.6066985217376,-0.00500316084776009,3.1764779916855517,34.8524155180507,-0.004722565981674566,-6.282636824943736,17.372617130002855,0.12004258232252847,-0.04185074781206659,0.9150193861343942,0.9854815767487112,0.03613142703110072,-0.0061079815873978744,0.16577504489291753
1.37,-0.001964353308787107,3.7894108051653665,1027.9560904684106,-0.005049457537639845,3.113668141912935,35.02616291410606,-0.004753502594970054,-6.276037665626955,17.362732191987117,0.11550347008791154,-0.04148352046056781,0.9296596029132554,0.9846837912946406,0.03671778838428668,-0.006382274877651355,0.17031397161446624
1.3800000000000001,-0.0020151376118857853,3.820235909567108,1028.3072206165223,-0.005095961282357058,3.0509556979059047,35.19976959254484,-0.004800929444455602,-6.263626744501837,17.355768109366046,0.11101980167736221,-0.04106863464881189,0.9443690283917608,0.9838526965552502,0.03728032764506894,-0.006661041796301893,0.17492131831853883
1.3900000000000001,-0.002066393268106374,3.850434738528305,1028.6600872927963,-0.005142877489278221,2.9883970014867858,35.373274042747305,-0.004864278255425511,-6.245550140123225,17.350436685639337,0.10659683964183934,-0.040607431187602086,0.9591469774792035,0.9829872608517837,0.037819246211253515,-0.006944147661593122,0.17959714864591905
1.4000000000000001,-0.002118120762794433,3.880008737278714,1029.0146888275092,-0.005190411499031037,2.926048375019938,35.5467146546096,-0.004942981405214014,-6.221954223876305,17.345453882992537,0.10223984364127009,-0.04010125221763193,0.9739927653476772,0.9820864522608869,0.03833474570012101,-0.007231457797110015,0.18434152605915166
1.41,-0.002170323616247547,3.9089600393843686,1029.3710240044368,-0.005238760130757558,2.863963656395912,35.72011711548582,-0.0050365545263253205,-6.1930227569422565,17.340066661915163,0.09795370419662862,-0.03955160968551522,0.9889057407246883,0.981149207627976,0.03882705575237851,-0.007522838208442455,0.18915449126248132
1.42,-0.0022230113305371575,3.9372921350956545,1029.7290925011869,-0.00528810340807899,2.802191786702823,35.893482076507624,-0.005144677344005205,-6.159013194353726,17.334568560154107,0.09374258427019375,-0.038960350218810974,1.0038853184741745,0.9801744022429127,0.03929646124183018,-0.007818156245385826,0.19403604010441788
1.43,-0.0022761941073657977,3.9650086733414,1030.0888940999102,-0.005338619390204478,2.7407811342964643,36.06680726055827,-0.005267048775864022,-6.120191610411051,17.329375523626812,0.08961056172863588,-0.03832935958951975,1.0189309211954212,0.9791609041959926,0.03974325350236928,-0.008117279414954404,0.19898616318712292
1.44,-0.002329882148436002,3.9921133030504343,1030.450428582758,-0.005390486136343174,2.679780067532627,36.240090390521004,-0.005403367739512131,-6.076824079414569,17.324903498250706,0.08556171443862529,-0.037660523569642085,1.0340419714877132,0.9781075815775105,0.04016772386788907,-0.008420075224162465,0.2040048511127582
1.45,-0.002384086487960417,4.018609867949122,1030.8136957090671,-0.005443869799611975,2.6192358372986853,36.41333011683886,-0.0055533022684284795,-6.029168872186661,17.321458018812656,0.08159999738050547,-0.03695577137301256,1.0492178874679405,0.9770132928812151,0.0405701709077441,-0.008726411976546262,0.20909208500879292
1.46,-0.002438822532661607,4.044503234879523,1031.178695118354,-0.005498873999945645,2.5591898253139744,36.58652996168466,-0.005716358186445515,-5.977443274119878,17.31876471871843,0.0777287201110087,-0.03621726037868264,1.064458063710555,0.9758768461978674,0.04095093119338128,-0.009036162159135016,0.2142477962397131
1.47,-0.0024941071197952035,4.0697986054115445,1031.5454264109344,-0.0055555818985981355,2.499681493110316,36.759695041091696,-0.005891988248044846,-5.921851161600575,17.316359507824593,0.07395098102672476,-0.0354472226134218,1.0797618870877415,0.9746970331281256,0.04131035372920954,-0.00934919962765125,0.21947189988928853
1.48,-0.00254995708743284,4.094501181306029,1031.9138891871007,-0.005614076645153373,2.440750301124219,36.93283047200239,-0.006079645177436308,-5.862596403366354,17.31377818776577,0.07026987840379362,-0.034647890146579964,1.0951287444672915,0.9734726452632414,0.041648787526729805,-0.009665398238598214,0.22476431103200223
1.49,-0.002606389413694314,4.118616230447214,1032.2840830605219,-0.005674442178787788,2.382435240979428,37.10594148560503,-0.006278758694463578,-5.799886456778368,17.31059859518778,0.06668845789058743,-0.033821508522386794,1.1105580224891616,0.9722024700902019,0.04196658389213812,-0.00998463240352678,0.23012494071469758
1.5,-0.002663423398119816,4.142150116772251,1032.6560078665777,-0.0057367755268618705,2.3247675333193807,37.27903520681242,-0.006488377201545447,-5.73398826376179,17.307095333694175,0.06320889278434413,-0.03297054664295092,1.1260491040167466,0.9708852270642262,0.04226413216820305,-0.010306785734385903,0.2355536332225801
1.51,-0.002721080250351632,4.165110106068293,1033.0296636230767,-0.005801184485904786,2.267772004699741,37.452120318724354,-0.006707235346981226,-5.66521771109925,17.30411631796488,0.05983263859773658,-0.03209765719284165,1.1416013688060256,0.9695195796628991,0.04254185299479763,-0.010631749413360307,0.24105017790830435
1.52,-0.0027793812368345,4.187503490941626,1033.4050503532517,-0.005867777172698312,2.211473291529342,37.62520555077789,-0.0069340584486772055,-5.593892141091338,17.302526511755303,0.056561129498021945,-0.031205498321935306,1.1572141965205691,0.9681041896991476,0.04280016794250555,-0.010959414847757728,0.24661436249094534
1.53,-0.002838347624013156,4.209337563998538,1033.7821680803356,-0.0059366617040242245,2.155896030217016,37.798299632410085,-0.007167571824539677,-5.520328896038646,17.303190878820857,0.0533957996524574,-0.030296728180108225,1.1728869668239483,0.9666377189858983,0.04303949858191046,-0.011289673444885902,0.25224597468957816
1.54,-0.002898000678332338,4.230619617845317,1034.161016827562,-0.006007946196664302,2.1010648571715946,37.97141129305798,-0.007406500792474934,-5.444845318241765,17.306974382916945,0.05033808322830012,-0.02937400491723673,1.1886190593797337,0.9651188293360782,0.04326026648359603,-0.011622416612052567,0.2579448022232778
1.55,-0.0029583620673628566,4.251356992952912,1034.5415966134617,-0.006081744960714108,2.047003900087432,38.14454791676796,-0.0076495160567822676,-5.367738826989734,17.314540927241143,0.047389339741113576,-0.028439987572924035,1.2044098512963033,0.9635461770394332,0.04346289406527633,-0.011957537257856128,0.26371062542499224
1.56,-0.0030194581607098886,4.271557590865986,1034.9239074014497,-0.00615824490482666,1.9937313234639586,38.31770111680124,-0.007894648136357593,-5.289073302314833,17.32419756582112,0.044550053632880234,-0.02749734561622866,1.2202586897298409,0.9619183536425099,0.043647813674800875,-0.012294945889153443,0.26954313804685137
1.57,-0.003081318380144156,4.291229677331095,1035.3079491191631,-0.006237680062537163,1.9412614209956178,38.490852269350675,-0.00813951199553522,-5.208761030190895,17.332721484277045,0.04182014132135645,-0.026548755286134994,1.2361649023940837,0.9602339086660107,0.043815464105828594,-0.012634564436111774,0.2754419776399943
1.58,-0.0031439721991477947,4.3103815242653,1035.6937216936337,-0.006320285265795692,1.8896084207956125,38.663982577167275,-0.008381715558102638,-5.126711728204429,17.336863948383275,0.039199509600529404,-0.025596892936327113,1.2521278166733647,0.9584913909186135,0.04396628426122675,-0.012976315022438192,0.281406780803373
1.59,-0.0032074490912029413,4.329021403585663,1036.0812250518932,-0.006406295346552321,1.8387865509771455,38.83707324300203,-0.008618866747847325,-5.042835113941945,17.333376223914158,0.03668806526438633,-0.02464443492048909,1.2681467599520169,0.9566893492089967,0.04410071304386259,-0.013320119771839771,0.28743718413593966
1.6,-0.0032717785297917317,4.347157587209244,1036.4704591209725,-0.0064959451367571225,1.7888100396534192,39.01010546960596,-0.008848573488556763,-4.9570409049899515,17.319009576644046,0.03428571510691443,-0.023694057592305008,1.284221059614373,0.9548263323458384,0.04421918935660338,-0.013665900808023582,0.29353282423664623
1.61,-0.003336990531059873,4.364798395458602,1036.8614235629093,-0.006589413402062611,1.739693013509611,39.18305263719117,-0.00906882326563256,-4.869276659430142,17.290949810650446,0.03199226508489372,-0.022748422638723495,1.3003500115694409,0.9529008818653416,0.04432215120472229,-0.014013582637057527,0.2996933246543459
1.62,-0.003403119770012551,4.381952564225766,1037.2541157647213,-0.006686397569375973,1.6914487284539654,39.35582096813674,-0.00928086216579419,-4.779814802461648,17.25011331559859,0.029806655450449138,-0.021810065830263122,1.3165326415051835,0.950911476868268,0.04441002888749393,-0.014363110217984303,0.30591819690056365
1.6300000000000001,-0.00347020329347693,4.398629040968879,1037.6485319552153,-0.006786350016398642,1.644089997082823,39.52828249481774,-0.009487595227326026,-4.68909314889721,17.199315719567707,0.02772738572609428,-0.020881458833479315,1.3327678375402265,0.9488565646695416,0.04448324878107459,-0.014714438922441229,0.31220689544870195
1.6400000000000001,-0.003538278167090547,4.414836774823966,1038.0446683540129,-0.006888721177403363,1.5976296284767202,39.700308978456164,-0.009691940645274386,-4.597550825216418,17.141387713058506,0.02575295193901793,-0.019965072806533788,1.3490544867021645,0.9467345923320001,0.044542237230507244,-0.015067524204645515,0.318558874319807
1.6500000000000001,-0.0036073814564909394,4.430584714927055,1038.4425211807352,-0.006992961486662881,1.552080431716193,39.87177218027404,-0.009896816614685585,-4.505626957898864,17.07915998657169,0.023881850116408875,-0.019063378907588236,1.3653914760185926,0.9445440069184812,0.044587420580834855,-0.015422321518814364,0.3249735875349251
1.6600000000000001,-0.0036775502273156437,4.44588181041417,1038.8420866550039,-0.0070985213784499415,1.5074552158817776,40.0425438614934,-0.01010514133060594,-4.413760673424136,17.01546323060796,0.0221125762854559,-0.018178848294804362,1.3817776925171055,0.9422832554918228,0.04461922517710038,-0.01577878631916498,0.33145048911510255
1.67,-0.003748819238342215,4.460737021514854,1039.2433606877505,-0.007204934868321825,1.4637629496715656,40.212526905854176,-0.010319448818670892,-4.322421931833903,16.95343940419069,0.02044353003127801,-0.017313895445053067,1.3982119906810921,0.9399507783454267,0.04463807361722019,-0.016136876707576447,0.33798901121158453
1.68,-0.0038212084101936676,4.4751593798142135,1039.6463372043586,-0.0073122735822791435,1.4209878997259922,40.38182438294844,-0.010539802055064662,-4.23227902040383,16.898232603656435,0.018872490605576192,-0.016470570250548964,1.4146930156635342,0.9375449722304194,0.04464436439689198,-0.016496567816183975,0.3445884453049705
1.69,-0.003894731789283301,4.489157945145987,1040.051009344161,-0.007420821978482823,1.3791045534999176,40.55061861303737,-0.010765285763410539,-4.1440787412788325,16.855779542402896,0.017396991679067983,-0.015650778269740588,1.4312193297465445,0.9350642166601731,0.04463848647009543,-0.016857841519153604,0.3512480271863951
1.7,-0.003969403407409885,4.502741777414192,1040.457370244536,-0.007530865044601935,1.3380873741184258,40.71909211355102,-0.010994982233523413,-4.05856809194208,16.832018905790985,0.016014566311486476,-0.014856424701986429,1.4477894950060615,0.9325068911051738,0.044620828767071234,-0.017220679707424972,0.35796699250844255
1.71,-0.004045237292513643,4.515919935854622,1040.8654130476814,-0.007642687697436996,1.2979108212366068,40.887427409169305,-0.011227973360242048,-3.9764935699120048,16.83288441077655,0.014722747326208702,-0.014089414543551199,1.4644020740422186,0.9298713750117664,0.044591780199654055,-0.01758506428010535,0.3647445768739979
1.72,-0.00412224505319121,4.5287010607189675,1041.275133918441,-0.007756530418603266,1.2585471787937696,41.05581157029711,-0.011463093385045345,-3.898288190599053,16.86119454242423,0.013518919349369695,-0.013351525449182711,1.4810559581302827,0.9271560326894994,0.04455171813894496,-0.01795098225747132,0.371579984724152
1.73,-0.00420043174746125,4.541092657823934,1041.6865372057273,-0.007872513377682635,1.2199628397941877,41.22444397527525,-0.011698506006932641,-3.8235361900145133,16.911333031197117,0.012400065750500651,-0.012644190285669786,1.4977509284613224,0.9243591874637612,0.04450098870852977,-0.01831843452579982,0.37847233612679426
1.74,-0.00427980133548631,4.553102042858518,1042.099628630076,-0.0079907365803414,1.1821232099400873,41.393526065215624,-0.011932262544108297,-3.751679551431709,16.976269969412336,0.01136310264979733,-0.011968784134431767,1.514486915373476,0.9214791557911248,0.044439932795009775,-0.018687424295265504,0.38542073700913293
1.75,-0.004360357777428939,4.564736531511712,1042.5144139120232,-0.00811130003224586,1.1449936949336945,41.56325928123012,-0.01216241431477667,-3.6821602581239614,17.048975449387015,0.010404946167455489,-0.011326682076887994,1.5312638492048807,0.9185142541281632,0.04436889128498625,-0.019057954776043037,0.3924242932983763
1.76,-0.004442105409973384,4.576003426565539,1042.930898801671,-0.008234300558316344,1.1085400692817562,41.73384067895112,-0.012387024249393048,-3.614423977036625,17.12246557558379,0.009522507783284926,-0.010719251036763364,1.5480816645500073,0.9154627984857118,0.04428820433700289,-0.01943002935173181,0.3994821083026237
1.77,-0.004525061608367597,4.586909583846614,1043.3490900729673,-0.008359724837472817,1.072740878816736,41.90531544931321,-0.012604557398860537,-3.548043936933671,17.19134980630078,0.008712538285245696,-0.010147575445115098,1.5649404433957952,0.912323089439162,0.044198186897708755,-0.019803657411453256,0.40659319463289295
1.78,-0.004609259814541073,4.597461308423789,1043.7689957614862,-0.00848742382197471,1.037590406750436,42.07754164900891,-0.012813974324271808,-3.48275055376333,17.252200999273658,0.007971590449857848,-0.00961239163333009,1.5818404493525535,0.9090934085436847,0.04409912284656705,-0.020178855744592578,0.41375645313933956
1.79,-0.0046947344608604166,4.607664871414231,1044.1906239805755,-0.008617240097156285,1.003083906431805,42.250365798764314,-0.013014266132646606,-3.418283933341706,17.301713046794575,0.007296204847145714,-0.009114414474049547,1.5987819572268378,0.905772036181942,0.04399129414789167,-0.02055564159672723,0.4209707777825753
1.8,-0.0047815199796922385,4.617526543935108,1044.6139828435832,-0.008749016248351806,0.9692166312097917,42.42363441930554,-0.013204423931004673,-3.3543841814849027,17.33657984115569,0.006682922047133631,-0.008654358839914682,1.6157652418252033,0.9023572527365953,0.04387498276599654,-0.020934032213434678,0.42823506252321186
1.81,-0.00486964942220033,4.627052589484038,1045.0390799374711,-0.00888259876736336,0.9359834040005305,42.597197187820605,-0.013383550277264953,-3.290844656804628,17.35405038014257,0.0061282790692474285,-0.008232901497255444,1.6327905168627683,0.8988473370637788,0.043750466697472554,-0.021314045344201026,0.4355481899519501
1.82,-0.004959141982595758,4.636249195115325,1045.4659175682248,-0.009017873337731868,0.9033747293918795,42.77093544878285,-0.013551865863356688,-3.227992977952985,17.356942771668635,0.005628777311442218,-0.007850336909854835,1.6498573831532373,0.8952405527046985,0.04361798413262772,-0.02169570379398876,0.4429089285905679
1.83,-0.005050008859587269,4.645122503775252,1045.8944949946901,-0.009154748256746368,0.8713786202836307,42.944748818782,-0.013710236547808797,-3.1664650331905784,17.35128851650658,0.005180897617980149,-0.0075067389518062525,1.6669650878644022,0.8915351543638016,0.04347775029342816,-0.022079033284785072,0.4503159811427403
1.84,-0.005142261155284721,4.65367865787721,1046.3248114388987,-0.00929313209490738,0.8399830594718632,43.118537135165184,-0.013859535983829772,-3.106900435184732,17.3431579385295,0.004781120584800763,-0.007202178832114809,1.6841128738914284,0.8877293966387729,0.04332998012434446,-0.022464059573819625,0.4577680495169509
1.85,-0.005235909971797969,4.661923799834585,1046.756866122882,-0.009432933422715424,0.8091760297526562,43.29220023527952,-0.0140006378246281,-3.049938796602769,17.338621361610485,0.004425926807843605,-0.00693672775978562,1.7012999841294811,0.8838215341272974,0.043174888569847206,-0.022850808418322086,0.46526383562168316
1.86,-0.005330966316864636,4.6698639104000765,1047.190658044974,-0.009574061254837484,0.7789427647976926,43.46566327972936,-0.014134131167094352,-2.9960095980448402,17.341659082544275,0.0041118186569395814,-0.006710344322928603,1.7185256262825968,0.8798098180076345,0.043012678640315063,-0.023239305813643363,0.4728020079280376
1.87,-0.005427440816554208,4.6775043165245975,1047.626185298813,-0.009716426402276022,0.7492573800379012,43.638953843571784,-0.014259454281457735,-2.9446924862817827,17.347798734335406,0.003835386561727554,-0.006522531638730508,1.73578886573188,0.875692485628916,0.04284350508126568,-0.02362957871816439,0.48038109967682996
1.8800000000000001,-0.0055253440004627945,4.6848501798990805,1048.0634457493586,-0.009859940130089092,0.7200911805720309,43.812125388929886,-0.014375754546135346,-2.895352297539196,17.350431389575235,0.0035932432105217917,-0.006372677696038909,1.7530887318837955,0.8714677708447172,0.04266751043841863,-0.024021654333688983,0.4879996099270274
1.8900000000000001,-0.005624686398186498,4.6919066622144525,1048.502437261571,-0.010004513703334774,0.6914154714986928,43.98523137792802,-0.014482179339530055,-2.8473538680321777,17.342948120750666,0.0033820012916376515,-0.006260170483695748,1.7704242541448063,0.8671339075086129,0.04248483725749287,-0.024415559862020965,0.49565603773759537
1.9000000000000001,-0.005725478507371467,4.698678921120094,1048.9431577061755,-0.010150058158641506,0.6632017004210611,44.15832382617241,-0.01457788201830228,-2.8000674182849346,17.31879580060905,0.003198274757218219,-0.006184396199604561,1.7877944628623563,0.862689129578377,0.04229562787616241,-0.02481132246951111,0.5033488813159878
1.9100000000000001,-0.00582772801168313,4.705171758307661,1049.3856054616747,-0.010296464413779263,0.6354338659807786,44.33132734770335,-0.014662542472009614,-2.7533373899226734,17.276335889899173,0.0030387888705821968,-0.006144583305408356,1.8051984712604778,0.8581316801890767,0.042100006308613346,-0.02520896619999482,0.5110765638730665
1.92,-0.005931437620583034,4.71138934619496,1049.8297798038343,-0.010443587827086265,0.6081181534159495,44.50394134763804,-0.01473677141469324,-2.7078465662573445,17.22261800528609,0.0029004656884783456,-0.006139681391843495,1.8226355390323912,0.8534598187017732,0.04189806417383628,-0.02560850957670455,0.5188373760273827
1.93,-0.006036611567912217,4.717335865093319,1050.2756786769658,-0.010591308388761602,0.5812553873266242,44.675919979599485,-0.014801175081095751,-2.664260362786972,17.164531676129492,0.0027802703470770794,-0.006168579336488978,1.840104783282338,0.848671811084783,0.04168988584353202,-0.026009969492036503,0.5266295743627449
1.94,-0.006143260645904943,4.723015728328865,1050.7232954340498,-0.010739597281895998,0.554821780754283,44.84726829998028,-0.014856038247138612,-2.6229116597515727,17.10558441419072,0.002675242053346794,-0.006230062129268765,1.8576048128009832,0.8437659392702882,0.041475542993721734,-0.02641335939799332,0.5344513493960236
1.95,-0.0062513960043328225,4.728433318046222,1051.1726226987423,-0.010888429735578383,0.5287895175706563,45.01803302838233,-0.014901437749262272,-2.5839894032673714,17.04784087280926,0.0025824617060222544,-0.006322870370975404,1.8751341509918178,0.838740489355714,0.04125510133422576,-0.02681869146220738,0.5423008691548593
1.96,-0.006361022899592615,4.733592538289391,1051.6236542873091,-0.011037693366077106,0.5031364418544675,45.188206780583805,-0.014936573340266171,-2.5472110236684813,16.988698845777726,0.0024991742047814503,-0.006445600891635935,1.892691424868168,0.8335937532690085,0.04102860568898083,-0.02722597422784815,0.5501762453827224
1.97,-0.006472144269495154,4.738497085434867,1052.07638447536,-0.011187247720739467,0.4778421496025935,45.35776594917806,-0.014960611940556388,-2.512200545118232,16.92465108677465,0.0024227006930075535,-0.006596785731790643,1.9102753043353464,0.8283240264826194,0.04079609148309587,-0.027635214256079888,0.558075559774397
1.98,-0.006584761938286591,4.743150321203983,1052.5308076408194,-0.011337015682602408,0.4528813777147177,45.52673989858778,-0.014976452335518154,-2.479642566166764,16.86293029865911,0.0023505396287665454,-0.0067748270705627065,1.9278845054591545,0.822929621182439,0.04055757544218744,-0.028046410481918922,0.5659967847086925
1.99,-0.006698876940877601,4.747555369995284,1052.9869182605757,-0.011486963624843968,0.4282255531982972,45.69519428159883,-0.014989381167574676,-2.45090556266707,16.817698160331624,0.0022803148602659365,-0.006978037967009647,1.9455177794783487,0.8174088619611709,0.04031306125886268,-0.028459556502567686,0.5739378173950055
2.0,-0.006814489159706386,4.751715026355436,1053.4447117714326,-0.01163707212623476,0.4038458478568034,45.86320420383867,-0.015000012602599921,-2.4261946679774837,16.791454367552493,0.002209812340866926,-0.00720469899173774,1.9631740015300139,0.811760107302795,0.040062541557491595,-0.028874640755010336,0.5818965239325552
2.0100000000000002,-0.00693159712810769,4.755631698959155,1053.9041847465246,-0.011787337630705995,0.3797132057079512,46.03085516177353,-0.015003364646649522,-2.404319673967175,16.772709286110796,0.0021370074618217274,-0.00745305419734183,1.980852192913273,0.8059817556095573,0.03980599612918965,-0.02929164567641536,0.5898707352215848
2.02,-0.007050199301176422,4.759307774102922,1054.3653338248869,-0.011937757502271969,0.3557985575592652,46.198233254475234,-0.01499413076244738,-2.3840094511609484,16.749161985495125,0.0020598866006313996,-0.007721345518593534,1.9985513834037603,0.8000722075987219,0.03954340402082138,-0.029710553355998287,0.5978582801210096
2.0300000000000002,-0.007170294142198689,4.762745636073784,1054.828155650712,-0.012088328723230455,0.3320728465386532,46.36542447321846,-0.01496703758962349,-2.3640009537841804,16.708592771932775,0.0019764370611390076,-0.008007814322443987,2.0162706033958915,0.7940298639673408,0.03927474418731818,-0.030131345832824917,0.6058569867328308
2.04,-0.007291881455276583,4.765947340233418,1055.2926477123453,-0.012238985792582284,0.30850903250189265,46.53249716392252,-0.014922242505592397,-2.3443543594524003,16.652079617958524,0.0018847977803924869,-0.008310609029130951,2.034008984572325,0.7878531221041686,0.03899998053505675,-0.03055399693692716,0.6138645592593566
2.05,-0.007414963861762933,4.768914250823155,1055.7588092718224,-0.01238953192277441,0.2850843127452368,46.69948259703204,-0.014871313662871687,-2.3279101318334323,16.60864083969393,0.0017834262990010824,-0.008627682764240854,2.051765871437151,0.7815403724467388,0.03871904535119714,-0.030978463249955186,0.6218784415715053
2.06,-0.0075395443385767435,4.771647644857791,1056.2266398150364,-0.012539753756532934,0.2617764193737505,46.86640736368331,-0.014827259371806253,-2.317859635448394,16.61082111357796,0.001670820368638449,-0.008956964005155403,2.0695406353547243,0.7750900045552688,0.03843186693222728,-0.031404699176635,0.6298960446836819
2.07,-0.007665625862638343,4.774148799351997,1056.6961388278803,-0.012689437936545226,0.23856308449443964,47.03329805500235,-0.014803087926933575,-2.317394229582907,16.691165063679083,0.0015454777410830937,-0.009296381229325133,2.087332647689434,0.7685004079900412,0.03813837357463431,-0.0318326591216915,0.6379147796103543
2.08,-0.00779321395339784,4.776418756764275,1057.1673059824584,-0.012838297627812426,0.21542571866558638,47.20016178455934,-0.014781802065221812,-2.319767283045597,16.78280792614372,0.00140609517022172,-0.009643993642125268,2.1051413454855243,0.7617700943321266,0.03783849204166684,-0.032262295495491915,0.6459321797908596
2.09,-0.007922321159286027,4.778457696312202,1057.6401414747968,-0.012985823739951023,0.19235784478170867,47.36694795466956,-0.014711947552125194,-2.3092071791344297,16.728474639935246,0.0012521219119713061,-0.009998326317121683,2.122966400598625,0.7548980297950166,0.03753214201278621,-0.03269355169797765,0.653946202193957
2.1,-0.008052914029377018,4.780266025763305,1058.1146455394567,-0.013132240649332034,0.16942958485873152,47.53278307561198,-0.01052428362181803,-0.8090903137059984,1.76608658619881,0.001082719599089263,-0.010357243417984316,2.1408071691943826,0.7478825907631304,0.03721920763252634,-0.03312635034696085,0.6619539255107357
2.11,-0.008184564225219855,4.781991092294703,1058.589349995472,-0.013197577521721952,0.1755728265834771,47.40829367199863,-0.006202601237712765,0.710124820792822,-13.392757874906376,0.0008970009278978287,-0.010717373931447524,2.158481623319046,0.7407226504531993,0.03689959441538048,-0.03356059688324743,0.6699522584120424
2.12,-0.0083168612406416,4.783777492409252,1059.0628118106647,-0.013261577216436475,0.18171124836737698,47.28409980090965,-0.006369913163762544,0.5996481039838687,-12.268777554979987,0.0006944519536731298,-0.011076409376727993,2.175816160975244,0.7334178057550947,0.03657323342344661,-0.03399614683711996,0.677937316567284
2.13,-0.008449791167488067,4.78562530065518,1059.5350323414539,-0.013324182443751591,0.18785162419757423,47.16003173633562,-0.006212336120000268,0.605907568651045,-12.321387477548546,0.00047477088929941477,-0.011432752175549671,2.19281618188709,0.7259679570083628,0.03624006486347497,-0.034432838560301875,0.6859049485905884
2.14,-0.008583340346608058,4.787534484030167,1060.0060129014778,-0.013385393778694783,0.1939836862008633,47.0361016567229,-0.006034519359881902,0.6184654288217856,-12.445675694150307,0.0002377839022887034,-0.011784905828185366,2.209486856085405,0.7183730836435485,0.03590002847937729,-0.03487051102671579,0.6938511264424075
2.15,-0.008717494650772985,4.789504893267331,1060.4757548478767,-0.013445204922492607,0.2000991250437667,46.91231180479681,-0.005916593326360087,0.6085008310592355,-12.352759670875912,-1.6547433325174695e-05,-0.012131443316762077,2.2258332877834164,0.7106332689707286,0.03555306263348065,-0.03530899789083776,0.7017718204616948
2.16,-0.008852240011949359,4.79153636536352,1060.9442595792268,-0.01350362207043231,0.20619045452627346,46.788656990913175,-0.0057712975128962635,0.6077452254647028,-12.35914120876774,-0.00028824470967913924,-0.012470941394038777,2.241860598073491,0.7027486112541312,0.035199105530377944,-0.03574813166767751,0.7096629893125167
2.17,-0.008987562917455493,4.793628722402218,1061.4115284611569,-0.013560669346285761,0.21224991841528745,46.66513708790961,-0.005623718058779709,0.6069167042234433,-12.371296147481122,-0.0005773020135032686,-0.012802006389555991,2.2575738582100207,0.6947192337296376,0.03483809596636173,-0.036187744292357146,0.717520611568421
2.18,-0.009123450371648956,4.795781548340974,1061.8775628220785,-0.013616348863691797,0.21827222481390599,46.541751311130895,-0.005479926685260902,0.6039896406994081,-12.368384666027222,-0.0008834103140721764,-0.013123468367122146,2.2729778426370153,0.6865455224335546,0.03446997351500593,-0.03662765775676756,0.7253407488887946
2.19,-0.009259889496115276,4.797994369140645,1062.3423639818525,-0.013670657055722972,0.22425268915540753,46.41849863012269,-0.005339458184712658,0.5994017418573155,-12.354228199364124,-0.0012061868968501939,-0.01343421162216504,2.288077254032309,0.6782279272667896,0.03409467793013889,-0.03706769163030966,0.7331194829226161
2.2,-0.009396867412439999,4.800266710762087,1062.8059332603393,-0.01372359035545185,0.23018662687307173,46.29537801443064,-0.005201847349507766,0.5935907146618838,-12.332648182449917,-0.0015452490473017082,-0.013733120450112522,2.3028767950737357,0.6697668981302487,0.03371214896558893,-0.03750766548238443,0.740852895318865
2.21,-0.009534371242208645,4.802598099166158,1063.2682719774,-0.013775145195950984,0.23606935340017712,46.17238843360042,-0.005066628972019042,0.586994266077832,-12.307466050242683,-0.001900214050891048,-0.01401907914639239,2.3173811684391294,0.6611628849248394,0.03332232637518441,-0.03794739888239276,0.7485370677265197
2.22,-0.009672388107006767,4.804988060313713,1063.7293814528953,-0.013825318010292935,0.2418961841700033,46.04952885717766,-0.004933337844619274,0.580050103069878,-12.282503237700508,-0.002270699193082603,-0.014290972006432492,2.331595076806325,0.6524163375514679,0.03292514991275363,-0.03838671139973565,0.7561680817945599
2.23,-0.00981090509730806,4.807436107011068,1064.1892630033503,-0.013874103860766361,0.2476626154771217,45.92679827636973,-0.0048015771880492875,0.5731670013590215,-12.261303447621463,-0.0026563012692292507,-0.01454770795698916,2.345523193788992,0.643527734079193,0.0325205601736373,-0.038825421799154027,0.7637420308678501
2.24,-0.009949908982823665,4.809941616441336,1064.6479179109035,-0.013921483676893533,0.25336600829397676,45.80419590571564,-0.004671655718745469,0.5664554558726932,-12.244546967393863,-0.003056405821868038,-0.014788449873535675,2.3591698933496037,0.6344978429903919,0.03210850642915875,-0.03926334054935378,0.7712551288757115
2.25,-0.010089386344224724,4.812503885858716,1065.1053474374276,-0.013967430059114749,0.2590048225324825,45.68172109137394,-0.004544297933841726,0.5598501711016504,-12.231226543484473,-0.003470273892644311,-0.015012510295073063,2.372539372852551,0.6253276039212206,0.031688943063792545,-0.03970027322980997,0.7787036608133668
2.2600000000000002,-0.010229323759746552,4.815122211487487,1065.5615528445335,-0.01401191550054689,0.2645775322648127,45.55937318119914,-0.004420233687966545,0.5532835864090933,-12.220313177744615,-0.0038971649189614974,-0.015219203689074656,2.3856358273866936,0.6160179587132154,0.0312618245278981,-0.04013602535699809,0.786083912591752
2.27,-0.010369707807624435,4.817795889551933,1066.0165353938326,-0.014054912494306824,0.2700826115631401,45.43715152304577,-0.004300192835748433,0.5466881411582233,-12.210777872025613,-0.004336338338222949,-0.01540784452301374,2.3984634520408896,0.6065698492079145,0.030827105271834902,-0.040570402447393565,0.7933921701218016
2.2800000000000002,-0.01051052506609369,4.820524216276335,1066.4702963469363,-0.01409639353351143,0.2755185344996386,45.31505546476833,-0.004184905231815874,0.5399962747122407,-12.201591628178791,-0.004787053587832095,-0.015577747264363645,2.4110264419039984,0.5969842172468542,0.030384739745962362,-0.0410032100174719,0.8006247193144513
2.29,-0.010651762101736021,4.823306487827246,1066.9228369651544,-0.014136332687902483,0.2808837896298266,45.193084355592596,-0.0040750852699199015,0.533141561610613,-12.191738069429508,-0.00524856893421543,-0.015728229760199476,2.423328988301431,0.5872620087625946,0.02993468263569163,-0.041434253518561594,0.8077778483856863
2.3000000000000003,-0.010793404992801533,4.8261419979521465,1067.3741584971717,-0.014174770094104302,0.28617747241927227,45.071237602205265,-0.003970799471276082,0.5261051448136237,-12.180729705000138,-0.005720093575191106,-0.015858751476414485,2.4353751248551654,0.5774043411178467,0.029476898476037263,-0.041863335672075425,0.8148479421423241
2.31,-0.010935439161968711,4.829030037150979,1067.8242621747238,-0.014211834581688594,0.2913994930933584,44.94951468843275,-0.0038712446062883115,0.5189320265599677,-12.16878905881506,-0.006200770835338743,-0.01596896199821592,2.447168673474712,0.5674125618155231,0.029011365024831943,-0.04229025553459017,0.8218315150616778
2.32,-0.011077849985902376,4.831969895695745,1068.273149228357,-0.014247661205464912,0.2965498190643561,44.827915103515764,-0.003775556398729113,0.5116716912845911,-12.156188489768844,-0.006689739415684645,-0.016058524255028163,2.4587134412097713,0.5572880345117643,0.028538060967999962,-0.04271481190545283,0.8287250907224583
2.33,-0.01122062284126735,4.834960863858448,1068.720820888617,-0.01428238502024281,0.30162841774453675,44.706438336695044,-0.003682870572371009,0.5043736234224401,-12.143200356756063,-0.007186138017255118,-0.016127101176275603,2.470013235110045,0.5470321228627107,0.028056964991465615,-0.04313680358401039,0.8355251927033759
2.34,-0.011363743104728437,4.838002231911089,1069.1672783860497,-0.014316141080831839,0.30663525654617074,44.58508387721133,-0.003592322850986536,0.4970873074084615,-12.130097018671286,-0.007689105341076401,-0.016174355691382612,2.4810718622252317,0.5366461905245038,0.027568055781153265,-0.043556029369609776,0.8422283445831406
2.35,-0.011507196153350906,4.841093290127173,1069.6125229511995,-0.014349064433508045,0.31157030296125476,44.46385121431445,-0.00350304902429139,0.4898622245108551,-12.11715081033843,-0.008197780087578009,-0.01619995075129065,2.4918931295783078,0.5261316011829276,0.0270713120249626,-0.043972288061519926,0.8488310699608705
2.36,-0.011650968557283441,4.844233333254056,1070.0565558083733,-0.014381264699675923,0.31643376201628937,44.34273986441174,-0.003414381354261234,0.4827384209392241,-12.104562350063926,-0.008711299179026525,-0.016203613415271136,2.5024807645645155,0.51548980684594,0.02656671829638338,-0.0443853782263872,0.8553299532376099
2.37,-0.011795050706149644,4.847421670361458,1070.499378161915,-0.014412770106886557,0.32122659916831037,44.22174943085103,-0.0033262810788840945,0.4757257380002759,-12.092302666647727,-0.009228793845171147,-0.016185275975648547,2.5128382396630506,0.5047225422714782,0.026054278010725074,-0.04479509768615254,0.8617217734625111
2.38,-0.011939433752303087,4.8506576133792,1070.9409912121803,-0.014443592628746513,0.3259499317285186,44.10087953434175,-0.0032388350395048124,0.4688279852330192,-12.080296941016224,-0.009749394178993783,-0.01614491170875928,2.522968976447648,0.4938315986812345,0.025533998345914202,-0.04520124411404287,0.8680033485549771
2.39,-0.012084108848097363,4.853940474237105,1071.3813961595258,-0.014473744238862352,0.33060487700811586,43.98012979559331,-0.003152130077468211,0.46204897217646174,-12.068470354095798,-0.010272230273476431,-0.016082493890939728,2.532876396492046,0.48281876729689976,0.025005886479877205,-0.04560361518328519,0.8741714964344116
2.4,-0.012229067145886039,4.857269564864994,1071.8205942043078,-0.01450323691084064,0.335192552318303,43.85949983531514,-0.003066253034119131,0.45539250836961226,-12.056748086812835,-0.010796432221600994,-0.015997995798526295,2.5425639213699807,0.4716858393401666,0.024469949590540604,-0.04600200856710643,0.8802230350202175
2.41,-0.01237429979802271,4.860644197192691,1072.2585865468823,-0.014532082618287938,0.33971407497028183,43.73898927421667,-0.0029812907508023965,0.4488624033514784,-12.04505532009372,-0.011321130116349472,-0.015891390707855363,2.5520349726551887,0.4604346060327256,0.023926194855830828,-0.04639622193873358,0.8861547822317986
2.42,-0.012519798424890845,4.8640636894646825,1072.6953743860695,-0.014560290437194768,0.3441705946451434,43.618597737191045,-0.002897335426772952,0.44246265329185,-12.033324115012606,-0.011845459786217014,-0.015762667588703382,2.5612929486082385,0.4490668852786742,0.023374631611838347,-0.04678605330996833,0.8919635797840385
2.43,-0.012665558564162358,4.8675274127775685,1073.1309589078278,-0.014587845191259654,0.34856353195153433,43.49832488414807,-0.002814524105598572,0.43619881641157043,-12.021544117689505,-0.012368605064451706,-0.01561194676085472,2.5703410523645536,0.4375847183068896,0.02281528725792392,-0.04717130352639512,0.8976464685538017
2.44,-0.012811577706106286,4.871034764572415,1073.5653412917054,-0.014614719615473023,0.352894442543651,43.37817039245187,-0.0027330161837779685,0.4300772295456965,-12.009733677874172,-0.012889773712573738,-0.015439414016334677,2.579182389798194,0.4259902576638989,0.02224819819719958,-0.047551774846115176,0.9032005886914984
2.45,-0.01295785335530292,4.874585142483378,1073.9985227172035,-0.014640886356223178,0.35716488306548383,43.258133939594465,-0.002652971221641839,0.42410423523600416,-11.997911355694724,-0.013408173667481586,-0.01524525562703617,2.587820066070361,0.41428565671211076,0.02167340089876874,-0.047927269537582605,0.9086230810751481
2.46,-0.013104383016332533,4.8781779441446105,1074.4305043638237,-0.01466631805989842,0.3613764101610226,43.1382152030679,-0.0025745487795208947,0.41828617602427043,-11.986095711279287,-0.013923012866073638,-0.015029657864852147,2.5962571863422546,0.4024730688139361,0.021090931831734896,-0.048297589869251444,0.9139110865827695
2.47,-0.013251164193775413,4.881812567190268,1074.8612874110665,-0.014690987372887054,0.36553058047425774,43.01841386036419,-0.0024979084177458332,0.4126293944522714,-11.974305304755976,-0.01443349924524837,-0.014792807001675517,2.604496855775076,0.3905546473317834,0.020500827465201456,-0.04866253810957579,0.9190617460923823
2.48,-0.013398194300629532,4.885488410982268,1075.290873038108,-0.014714867604180608,0.36962895326258977,42.898729589483025,-0.0024232071898748074,0.4071401270461267,-11.96255835341535,-0.014938842366783165,-0.014534892033993281,2.61254217449907,0.37853255125133073,0.019903124751753144,-0.04902191668767141,0.9240722066255861
2.49,-0.013545468037050952,4.889204926062154,1075.7192624144732,-0.01473795169033982,0.3736731651976226,42.7791620834615,-0.0023505278940903133,0.4018214699463488,-11.95086291904654,-0.015438299924465018,-0.014256182665955274,2.620396093618041,0.3664091061301288,0.019297874965608745,-0.049375532791760324,0.9289397971885494
2.5,-0.013692977003375734,4.892961621451704,1076.1464566986613,-0.014760254995303226,0.3776649414080453,42.659711052519164,-0.002279868480912511,0.39667293094209954,-11.93921545928816,-0.015931184609964216,-0.013957040822058658,2.6280613939512114,0.3541868278585391,0.018685145745555624,-0.04972319904804164,0.9336620547315111
2.5100000000000002,-0.01384071263053039,4.896758009368724,1076.5724570485686,-0.01478179410869747,0.38160601185685317,42.5403762078146,-0.0022112222638161223,0.3916938217140347,-11.927611797595498,-0.016416812120663694,-0.013637833466773686,2.635540847011512,0.34186824272887995,0.018065005624727997,-0.05006472837990772,0.9382365275691505
2.52,-0.013988666349441414,4.900593602031017,1076.9972646220917,-0.01480258562014919,0.38549810650704075,42.421157260506426,-0.0021445825562758777,0.38688345394281093,-11.916047757423838,-0.0168944981539463,-0.013298927564570672,2.64283722431187,0.3294558770334717,0.017437523136260173,-0.050399933710750855,0.9426607640161461
2.5300000000000002,-0.014136829591035316,4.904467911656391,1077.4208805771268,-0.01482264611928503,0.38934295532160335,42.30205392175323,-0.002079942671766498,0.3822411393090839,-11.904519162228468,-0.017363558407194963,-0.012940690079919867,2.649953297365217,0.31695225706463237,0.01680276681328636,-0.050728627963963394,0.9469323123871769
2.54,-0.01428519378623859,4.908380450462649,1077.8433060715704,-0.014841992195731624,0.39314228826353553,42.1830659027136,-0.0020172959237627153,0.37776618949351026,-11.89302183546467,-0.017823308577792532,-0.012563487977291583,2.6568918376844803,0.30435990911468247,0.016160805188940874,-0.051050624062937644,0.9510487209969214
2.5500000000000003,-0.01443375036597775,4.912330730667598,1078.2645422633188,-0.014860640439115613,0.39689783529583267,42.06419291454614,-0.0019566356257392503,0.37345791617674584,-11.881551600587734,-0.018273064363121934,-0.012167688221156069,2.6636556167825907,0.29168135947594004,0.01551170679635792,-0.05136573493106595,0.9550075381600588
2.56,-0.014582490965308854,4.916318277697043,1078.6845903081253,-0.014878609237958284,0.4006113087257271,41.94543466833457,-0.0018979352564032054,0.3693154364902277,-11.870104805279675,-0.018712156734169993,-0.011753669208711797,2.670247374876419,0.2789191670344082,0.014855543417990056,-0.051673775261071794,0.9588063616689713
2.57,-0.014731408548783445,4.920342703000468,1079.1034513477823,-0.014895928696978172,0.4042843058685079,41.82679087467489,-0.0018410391106595274,0.36533660046671235,-11.858681211510186,-0.019140016138875872,-0.011321883798492926,2.6766696483516754,0.26607610295867956,0.01419240799909297,-0.05197457126932915,0.9624431115642286
2.58,-0.014880496613308335,4.924403652472875,1079.5211265184926,-0.014912633612281947,0.40791837799450353,41.70826124396783,-0.0017857397557626974,0.36151875076855444,-11.84728194839465,-0.019556112857641725,-0.010872814664768126,2.6829248919761968,0.25315502341933194,0.013522401958911114,-0.05226795378650074,0.965915836920701
2.59,-0.015029748657205138,4.928500772100807,1079.9376169564441,-0.014928758792444463,0.41151507625166933,41.589845486613605,-0.0017318296214918621,0.35785922870968295,-11.835908148681888,-0.019959917276731434,-0.010406944561046693,2.6890155603009065,0.24015878481285266,0.012845626739210147,-0.052553753655512514,0.9692225871561898
2.6,-0.0151791581787955,4.932633707870813,1080.352923797825,-0.014944339046040582,0.41507595178796136,41.471543313012404,-0.0016791011376261589,0.3543553756040261,-11.824560945120714,-0.02035089978240896,-0.009924756240837844,2.6949441078767284,0.2270902435357268,0.01216218378175561,-0.05283180171929049,0.9723614116884969
2.61,-0.01532871867640104,4.936802105769437,1080.7670481788232,-0.01495940918164516,0.4186025557513349,41.353354433564455,-0.0016273467339447342,0.35100453276551274,-11.813241470459948,-0.02072853076093818,-0.00942673245765088,2.700712989254585,0.21395225598444176,0.011472174528313162,-0.053101928820760626,0.9753303599354234
2.62,-0.015478423648343394,4.941005611783225,1081.1799912356262,-0.014974004007833056,0.4220964392897461,41.23527855866995,-0.0015763588402267251,0.3478040415080712,-11.801950857448405,-0.021092280598583056,-0.008913355964995009,2.706324658985401,0.20074767855548253,0.010775700420648342,-0.05336396580284893,0.9781274813147711
2.63,-0.015628266598832995,4.945243872115527,1081.5917541043764,-0.01498815827238401,0.4255591530573564,41.11731539870987,-0.0015259303387924405,0.3447512408696107,-11.790690236321778,-0.02144161996663944,-0.008385109647221027,2.7117815710583346,0.18747936813857363,0.010072862955953976,-0.05361774355291335,0.9807508262983723
2.64,-0.0157782419014502,4.94951656497668,1082.0023379144116,-0.015001897747842784,0.42899217480912916,40.9994646612254,-0.0014759209209971045,0.3418431338773176,-11.77946036630053,-0.021776061615914614,-0.007842495704919246,2.7170860965289685,0.17415025444044238,0.009363771814181411,-0.0538630995178441,0.9831986009655227
2.65,-0.015928345709928408,4.953823434115675,1082.4117437811396,-0.01501522982874065,0.432396833029009,40.88172604794293,-0.0014263270787754048,0.3390760355307564,-11.768261246901037,-0.02209520446073458,-0.007286055891306091,2.722240436635107,0.16076341627053378,0.008648553430592646,-0.05409988457606506,0.9854693300229481
2.66,-0.016078574395937496,4.958164231305119,1082.819972818262,-0.015028159659667842,0.43577443792633325,40.76409925987693,-0.0013771620519678152,0.33644617659723214,-11.75709278463237,-0.022398657964053933,-0.006716336801855557,2.727246771824497,0.1473219506922938,0.00792733629173006,-0.054327951250365,0.9875615771855588
2.67,-0.016228924331147334,4.962538708317621,1083.2270261394806,-0.015040692385214582,0.43912629971043876,40.646583998041905,-0.0013284390804148177,0.33394978784405044,-11.7459548860036,-0.02268603158882721,-0.0061338850320417325,2.732107282544884,0.13382895476917084,0.007200248884136159,-0.054547152063532646,0.9894739061682649
2.68,-0.016379391887227805,4.966946616925786,1083.632904858497,-0.015052833149971103,0.44245372859066295,40.52917996345232,-0.0012801714039568863,0.3315831000385163,-11.734847457523804,-0.02295693479800901,-0.005539247177338608,2.7368241492440157,0.12028752556461075,0.0064674196943533165,-0.05475733953835677,0.9912048806859765
2.69,-0.01652997343584877,4.971387708902223,1084.0376100890132,-0.015064587098527631,0.4457580347763425,40.411886857122695,-0.0012323722624345028,0.3293423439479355,-11.723770405702053,-0.023210977054553873,-0.004932969833220278,2.7413995523696375,0.10670076014206195,0.005728977208924043,-0.05495836619762609,0.9927530644536037
2.7,-0.01668066534868012,4.975861736019538,1084.4411429447312,-0.015075959375474395,0.44904052847681486,40.29470438006749,-0.0011850548956881411,0.32722375033961293,-11.712723637047416,-0.023447767821416384,-0.00431559959516073,2.7458356723694965,0.09307175556497033,0.00498504991439071,-0.05515008456412938,0.9941170211860566
2.71,-0.01683146403744562,4.980368453589364,1084.843504538407,-0.01508695458116291,0.45230250874766814,40.17763223270935,-0.001138232807271331,0.3252235472754273,-11.701707074077738,-0.023666921797522975,-0.003687684446662673,2.7501346799916657,0.07940361503881631,0.004235767189341844,-0.055332348163648216,0.9952953361378821
2.72,-0.01698236646443296,4.984907665569274,1085.2446959698027,-0.015097569835071342,0.45554512132981484,40.06067010733539,-0.0010919231256247576,0.32333792562961117,-11.690720859360544,-0.023868125653238058,-0.0030497914504784623,2.7542986126566507,0.06569952619483267,0.003481270674050163,-0.055505024308676536,0.9962868906382927
2.73,-0.017133369992123365,4.989479211276572,1085.6447183292355,-0.015107796818985147,0.4587694005228879,39.94381769031924,-0.0010461456140449,0.32156304924546414,-11.67976529541295,-0.024051118373481263,-0.00240250153767408,2.758329410871892,0.05196273803159622,0.0027217109215542106,-0.05566799033298537,0.9970907812270744
2.74,-0.017284471992015306,4.994082930825292,1086.0435727068093,-0.015117627092166797,0.4619763781155076,39.82707466790126,-0.001000920095197236,0.31989508135721995,-11.668840688356083,-0.024215640121932454,-0.0017463959517985228,2.7622290129611717,0.038196500930420346,0.0019572386857163006,-0.05582112379614682,0.9977061092931737
2.75,-0.01743566983560723,4.99871866432947,1086.441260192628,-0.01512705221387876,0.4651670858962937,39.71044072632181,-0.0009562663917472498,0.31833018519911277,-11.657947344311063,-0.024361431062271448,-0.0010820559364009014,2.7659993572482704,0.02440406527262093,0.0011880047203988824,-0.055964302257732995,0.9981319762255371
2.7600000000000002,-0.017586960894397614,5.00338625190314,1086.837781876796,-0.015136063743383511,0.4683425556538663,39.59391555182126,-0.000912204326360419,0.3168645240053764,-11.64708556939902,-0.024488231358178104,-0.00041006273503021214,2.769642382056969,0.010588681439511333,0.0004141597794642682,-0.056097403277315994,0.9983674834131108
2.77,-0.017738342539884905,5.0080855336603385,1087.2331388494167,-0.015144653239943521,0.4715038191768452,39.47749883063999,-0.0008687537217022285,0.3154942610102449,-11.636255669741075,-0.02459578117333225,0.000269002408764432,2.7731600257110482,-0.0032464001875925352,-0.00036414538322508943,-0.05622030441446792,0.9984117322448413
2.7800000000000002,-0.017889812143566775,5.012816349715124,1087.6273322005948,-0.015152812262827891,0.4746519082537538,39.36119024901834,-0.0008259344004242187,0.3142155594481532,-11.625457951458307,-0.0246838206714523,0.0009545582514262057,2.7765542265342176,-0.017097929227352655,-0.00114676001380123,-0.05633288322876972,0.9982638241098536
2.79,-0.018041366671994102,5.0175785520721785,1088.0203630163123,-0.01516053572894346,0.47778780569296947,39.24498949015355,-0.0007837591312725356,0.3130246842977465,-11.614692696858059,-0.024752109539455548,0.0016460195846899027,2.7798268865542544,-0.030962642818598677,-0.0019335304986506387,-0.0564350217570856,0.997922950848983
2.8000000000000003,-0.018193001532506865,5.022372038519956,1088.4122323666845,-0.015167831483477534,0.4809123057092482,39.12889622552548,-0.0007422135225684086,0.3119182922945506,-11.603960096555035,-0.024800482636571218,0.0023427859345398054,2.7829797680447332,-0.04483723004770658,-0.0027242922129688154,-0.05652661927565407,0.9973886525791961
2.81,-0.018344711757224085,5.027196717864683,1088.8029413180066,-0.015174710482781744,0.48402615713267505,39.012910123794256,-0.0007012766465322143,0.3108931344495862,-11.593260319098295,-0.02482879291209207,0.0030442531532883154,2.786014599647665,-0.05871836843732428,-0.0035188778821304335,-0.056607579209333916,0.9966605532294
2.82,-0.018496492378264805,5.032052498912587,1089.1924909365744,-0.015181183683207726,0.48713010879333546,38.89703085361999,-0.0006609275753843235,0.3099459617738737,-11.582593533036896,-0.02483689331531088,0.003749817093247928,2.7889331100050603,-0.07260273551010157,-0.004317120231510272,-0.05667780498298392,0.9957382767285019
2.83,-0.018648338427748067,5.036939290469892,1089.5808822886836,-0.015187262041107109,0.49022490952131487,38.7812580836628,-0.0006211453813451072,0.30907352527843346,-11.571959906919899,-0.024824636795520414,0.004458873606731139,2.79173702775893,-0.0864870087886882,-0.00511885198648311,-0.05673720002146288,0.9946214470054088
2.84,-0.018800244937792896,5.041857001342825,1089.9681164406302,-0.015192956512831531,0.4933113081466984,38.66559148258281,-0.0005819091366349417,0.30827257597428603,-11.561359609296362,-0.024791876302013436,0.005170818546050348,2.7944280815512847,-0.10036786579573212,-0.00592390587242362,-0.05678566774962956,0.9933096879890281
2.85,-0.01895220694051834,5.046805540337612,1090.3541944587098,-0.015198278054732624,0.49639005349957155,38.550030719040144,-0.0005431979134741965,0.3075398648724518,-11.550792808715345,-0.024738464784082717,0.005885047763518084,2.7970080000241353,-0.11424198405388372,-0.0067321146147066155,-0.05682311159234275,0.9918026236082668
2.86,-0.019104219488117132,5.051784816813639,1090.7391174089148,-0.015203237511205107,0.49946189186814505,38.43457546155468,-0.0005049908903028053,0.3068721502300699,-11.540259673448404,-0.02466425657159854,0.0066009570036311095,2.7994785096439365,-0.12810604134617717,-0.007543310804181456,-0.05684943529547887,0.9900998839232704
2.87,-0.01925627839656154,5.056794761177331,1091.1228863457043,-0.015207841466824188,0.502527472825513,38.319225373310786,-0.0004672712870811314,0.30626646600997226,-11.529760361208469,-0.024569158523667346,0.007317937908637108,2.8018412540999877,-0.14195672536301962,-0.00835732191317877,-0.05686455481923132,0.9882013322800846
2.88,-0.019408380464510322,5.061835330914448,1091.5055023086977,-0.015212091025437734,0.5055873215101104,38.20398011062807,-0.0004300275236310461,0.3057202009007531,-11.519295016123639,-0.02445314508404774,0.008035376842787871,2.804097770579653,-0.15579073654173958,-0.009173968828490345,-0.05686840183885853,0.9861071321727782
2.89,-0.01956052255535086,5.066906485294442,1091.886966336537,-0.015215986929883464,0.5086419548639838,38.088839329373975,-0.0003932483622842065,0.3052307669564455,-11.50886378142719,-0.024316195148233258,0.0087526598226789,2.8062495892551182,-0.1696047761592956,-0.009993072003125124,-0.05686090906475494,0.9838174668658771
2.9,-0.019712701532470508,5.072008183586762,1092.2672794678638,-0.015219529922999101,0.5116918898291787,37.97380268541595,-0.0003569225653722762,0.30479557623108283,-11.498466800352396,-0.02415828761171746,0.009469172864905565,2.808298240298569,-0.18339554549264364,-0.010814451890091899,-0.05684200920731494,0.981332519623907
2.91,-0.019864914259256652,5.077140385060859,1092.6464427413202,-0.015222720747622362,0.5147376433477415,37.8588698346214,-0.00032103889522691235,0.30441204077869827,-11.488104216132538,-0.02397940136999387,0.01018430198606337,2.8102452538821914,-0.1971597458187422,-0.011637928942399612,-0.05681163497693296,0.9786524737113936
2.92,-0.020017157599096648,5.082303048986182,1093.0244571955482,-0.015225560146590968,0.5177797323617181,37.74404043285781,-0.00028558611417977837,0.3040775726533251,-11.47777617200089,-0.02377951531855605,0.010897433202747681,2.8120921601781714,-0.21089407841454735,-0.012463323613057057,-0.05676971908400341,0.9757775123928629
2.93,-0.02016942841537788,5.087496134632182,1093.4013238691896,-0.015228048862742637,0.5208186738131549,37.62931413599258,-0.0002505529845625315,0.3037895839089965,-11.467482811190731,-0.023558608352897536,0.011607952531554007,2.8138404893586952,-0.22459524455701751,-0.013290456355073173,-0.05671619423892071,0.9727078189328403
2.94,-0.020321723571487704,5.092719601268309,1093.7770438008863,-0.015230187638915092,0.5238549846440976,37.51469059989317,-0.0002159282687068352,0.30354548659974584,-11.457224276935335,-0.023316659368511884,0.012315245989077715,2.8154917715959478,-0.23825994552310875,-0.014119147621456756,-0.05665099315207927,0.9694435765958519
2.95,-0.020474039900444743,5.097973410339967,1094.151618027219,-0.015231978106307721,0.5268891692279583,37.400169479838695,-0.0001816994681212548,0.303342744419522,-11.44700070756323,-0.02305365644961114,0.013018699830276953,2.817047524757502,-0.2518848909162449,-0.014949217403631343,-0.056574050598021515,0.9659850062310537
2.96,-0.020626373957867653,5.103257543168563,1094.5250475659375,-0.015233430010757987,0.5299216171313946,37.28575042573432,-0.00014784256747002393,0.3031792927611798,-11.436812196601053,-0.02276967161370576,0.013717702487406103,2.81850915431584,-0.2654668663969929,-0.015780481476721227,-0.05648532020601386,0.9623326720001119
2.97,-0.020778722150803248,5.1085719917208365,1094.8973334247062,-0.015234557444199912,0.5329526564320335,37.17143308460699,-0.00011432738314256972,0.3030533196534855,-11.426658813580122,-0.022464821831909287,0.014411643558851802,2.819878005546069,-0.2790026983611585,-0.016612753357654893,-0.05638476570367214,0.9584873219384891
2.98,-0.020931080884888393,5.1139167480645495,1095.2684766110945,-0.01523537453981117,0.5359826146239817,37.05721710345634,-8.112367299254039e-05,0.3029630155226737,-11.416540627804045,-0.022139224501936654,0.01509991265406694,2.8211554231520357,-0.2924892135911146,-0.017445846541930807,-0.05627235091444368,0.9544497058265771
2.99,-0.02108344656575998,5.119291804267464,1095.6384781326706,-0.01523589543076943,0.5390118192013467,36.943102129281996,-4.820119487357826e-05,0.3029065707949788,-11.406457708576426,-0.021792997021502752,0.01578189938250453,2.822342751837585,-0.3059232388692369,-0.01827957452504759,-0.056148039661775805,0.9502205734447668
3.0,-0.021235815599054877,5.124697152397342,1096.007338997004,-0.015236134250252366,0.5420405976582351,36.8290878090836,-1.5529706639331407e-05,0.3028821758966354,-11.396410125200875,-0.021426256788322523,0.016456993353617465,2.8234413363065625,-0.31930160097789834,-0.019113750802503708,-0.05601179576911583,0.9458006745734501
3.0100000000000002,-0.021388184390409973,5.130132784521947,1096.3750602116634,-0.01523610513143765,0.5450692774887543,36.71517378986078,1.6921033856557758e-05,0.3028880212538779,-11.386397946980999,-0.021039121200110852,0.017124584176858755,2.8244525212628147,-0.33262112669947436,-0.019948188869797778,-0.05586358305991107,0.9411907589930176
3.02,-0.02154054934546214,5.135598692709039,1096.7416427842177,-0.015235822207502959,0.5480981861870112,36.60135971861317,4.918126876044118e-05,0.30292229729294085,-11.376421243220404,-0.020631707654582693,0.017784061461681298,2.8253776514101867,-0.3458786428163381,-0.02078270222242827,-0.05570336535760885,0.9363915764838613
3.0300000000000002,-0.021692906869920398,5.141094869027872,1097.107087722234,-0.015235299610090467,0.5511276512397288,36.487645242340136,8.128123575500755e-05,0.30298319447154953,-11.366480083219894,-0.020204133556594853,0.018434814819153676,2.8262180714441887,-0.3590709761212805,-0.021617104355779185,-0.05553110648720198,0.9314038768523476
3.04,-0.021845253653627276,5.1466213114184445,1097.4713960271959,-0.015234545422060373,0.5541579710453692,36.37403000699248,0.00011323358875454032,0.3030690272995197,-11.356574525241161,-0.01975654444528985,0.0190762402245852,2.826975093223367,-0.3721949944367044,-0.02245120831370821,-0.055346776361857704,0.9262285122304206
3.0500000000000003,-0.02199758731527623,5.1521780370126145,1097.834568680697,-0.015233547952413683,0.5571893489109907,36.260513655093156,0.00014499349919810549,0.30317851582096766,-11.346704591458307,-0.01928917783260797,0.01970775445839989,2.827649921260109,-0.3852476997134759,-0.023284825664004992,-0.05515036479737893,0.9208666692589472
3.06,-0.022149905663062453,5.157765066857709,1098.1966066602733,-0.015232291475939802,0.5602219687433484,36.1470958284658,0.00017650441109887116,0.30331046281606855,-11.336870296682942,-0.018802289994541872,0.020328778545627306,2.828243738166319,-0.3982261212670002,-0.024117767673315416,-0.054941865670052825,0.9153196028244404
3.0700000000000003,-0.022302206505181155,5.163382422001057,1098.5575109434608,-0.015230760267428138,0.5632560144491984,36.03377616893403,0.00020770976847001108,0.3034636710649975,-11.327071655726678,-0.018296137207084128,0.020938733511297124,2.8287577265538997,-0.4111272884126851,-0.02494984560828552,-0.054721272856166535,0.9095885678134121
3.08,-0.022454487649827524,5.169030123489986,1098.9172825077956,-0.015228938601668096,0.5662916699352959,35.920554318321486,0.00023855301532469352,0.3036369433479296,-11.317308683401121,-0.0177709757462274,0.021537040380438917,2.8291930690347544,-0.42394823046593577,-0.025780870735561186,-0.05448858023200722,0.9036748191123756
3.09,-0.02260674690519677,5.174708192371825,1099.2759223308133,-0.015226810753449085,0.5693291191083969,35.80742991845178,0.0002689775956760908,0.3038290824450401,-11.307581394517884,-0.01722706188796428,0.02212312017808233,2.8295509482207866,-0.4366859767421594,-0.02661065432178841,-0.05424378167386204,0.8975796116078427
3.1,-0.022758982079484093,5.180416649693902,1099.6334313900504,-0.015224360997560507,0.572368545875257,35.69440261114854,0.0002989269535373753,0.30403889113650406,-11.297889803888573,-0.016664651908287358,0.022696393929257003,2.829832546723899,-0.44933755655676305,-0.02743900763361319,-0.053986871058018124,0.8913042001863261
3.11,-0.02291119098088469,5.186155516503546,1099.9898106630426,-0.015221573608791773,0.5754101341426316,35.5814720382354,0.00032834453292171517,0.30426517220249666,-11.288233926324802,-0.016084002083189303,0.023256282658992513,2.8300390471559953,-0.46189999922515196,-0.02826574193768141,-0.05371784226076266,0.8848498397343385
3.12,-0.02306337140790249,5.191924813927752,1100.3450611269914,-0.015218433176330646,0.5784540671114156,35.468637841563215,0.0003571748713260978,0.304506734084963,-11.27861377607575,-0.01548537020924785,0.02380220801516256,2.830171630673313,-0.4743703371165606,-0.0290906685342,-0.05343668945477107,0.8782177898776325
3.13,-0.023215520781252646,5.197724566199106,1100.6991837460594,-0.015214936545345023,0.5815005004663917,35.35589966404479,0.00038540513279231915,0.30476260593482246,-11.26902934546591,-0.014869073358990832,0.024333615925551392,2.8302314216868787,-0.48674572164550195,-0.029913600031657637,-0.05314341836662465,0.8714094949885931
3.14,-0.02336763603028681,5.203554801589426,1101.0521794674507,-0.01521109650150332,0.5845495541040523,35.24325714997409,0.00041307792274291206,0.3050321039637999,-11.25948059830385,-0.014235505701049514,0.02484998389713362,2.8302194708031694,-0.49902345906040385,-0.030734350740134357,-0.05283804975026598,0.8644266397266914
3.15,-0.02351971405145726,5.209415548640974,1101.4040492372337,-0.015206926897773159,0.5876013455246771,35.13070994373759,0.00044023955868844483,0.30531456360382997,-11.249967496488853,-0.013585066566039337,0.02535079155127437,2.8301368236870643,-0.5112008659766258,-0.03155273508364042,-0.05252060536579747,0.8572709248398669
3.16,-0.02367175174121631,5.215306835896013,1101.754794001477,-0.01520244158712216,0.5906559922285467,35.018257689721715,0.00046693635813949087,0.30560932028684745,-11.240490001920197,-0.012918155284575619,0.025835518509338858,2.829984526003444,-0.5232752590095295,-0.032368567486186224,-0.05219110697332149,0.8499440510760579
3.17,-0.02382374599601624,5.221228691896805,1102.1044147062487,-0.015197654422517949,0.5937136117159408,34.90590003231294,0.0004932146386066185,0.305915709444787,-11.231048076497165,-0.012235171187273804,0.026303644392692206,2.829763623417188,-0.5352439547744744,-0.03318166237178202,-0.05184957633294047,0.8424477191832039
3.18,-0.023975693712309357,5.2271811451856145,1102.4529122976176,-0.015192579256928141,0.59677432148714,34.793636615897704,0.000519120717600401,0.3062330665095835,-11.221641682119035,-0.011536513604749214,0.026754648822699633,2.8294751615931752,-0.5471042698868219,-0.03399183416443822,-0.05149603520475678,0.8347836299092433
3.19,-0.02412759178654795,5.233164224304704,1102.8002877216518,-0.015187229943320363,0.5998382390424242,34.68146708486247,0.0005447009126314068,0.3065607269131715,-11.21227078068509,-0.010822581867617292,0.027188011420726268,2.829120186196287,-0.5588535209619319,-0.034798897288165064,-0.05113050534887283,0.8269534840021154
3.2,-0.024279437115184318,5.239177957796337,1103.1465419244198,-0.015181620334662232,0.6029054818820736,34.56939108359368,0.0005700015412102091,0.3068980260874859,-11.202935334094608,-0.010093775306493356,0.02760321180813732,2.8286997428914016,-0.5704890246151655,-0.03560266616697296,-0.05075300852539101,0.8189589822097587
3.21,-0.02443122660108023,5.245222374856223,1103.4916758499862,-0.015175763312923835,0.6059761644564334,34.45740825676414,0.0005950663014505139,0.3072443181511222,-11.193635302503283,-0.009350501583614836,0.027999736235206144,2.828214869409725,-0.582008120185571,-0.03640295568927896,-0.05036356822827259,0.8108018497209026
3.22,-0.024582957206466357,5.251297510732733,1103.8356904238503,-0.015169662766042761,0.6090503729652992,34.34551825169904,0.0006199146288499145,0.3075991303111017,-11.184370629916502,-0.00859324553430748,0.02837713235361413,2.8276665299954353,-0.5934083574942901,-0.037199585045148496,-0.04996222401164618,0.8024840381113159
3.23,-0.024734625925730155,5.2574034039526305,1104.1785865614568,-0.015163317710389966,0.6121281783067162,34.23372071716023,0.0006445528171977183,0.30796208352680887,-11.175141251591938,-0.00782253379426242,0.028734981072766654,2.8270556490888783,-0.6046874003688922,-0.03799237575461021,-0.0495490241285389,0.7940076215780238
3.24,-0.024886229753576117,5.263540093074997,1104.5203651781503,-0.015156727114313288,0.615209651227888,34.12201530192369,0.0006689870307344103,0.30833279968182364,-11.165947102701027,-0.007038893411231867,0.029072863629918403,2.8263831507380215,-0.6158429137608062,-0.038781149360661266,-0.04912401691773016,0.785374675526831
3.25,-0.025037765684708703,5.269707616658913,1104.8610271892762,-0.015149889946160566,0.6182948624760177,34.01040165476544,0.000693223433700471,0.308710900659726,-11.156788118415207,-0.006242851432968172,0.029390361262323993,2.82564995899083,-0.6268725626214584,-0.03956572740629871,-0.04868725071799944,0.7765872753635434
3.2600000000000002,-0.0251892307138324,5.275906013263458,1105.2005735101798,-0.01514280517427964,0.621383882798309,33.89887942446146,0.0007172681903363857,0.309096008344096,-11.147664233905918,-0.005434934907223545,0.029687055207238112,2.824856997895272,-0.6377740119022773,-0.04034593143451972,-0.048238773868126125,0.7676474964939654
3.27,-0.025340621835651667,5.282135321447712,1105.539005056206,-0.015135471767018347,0.624476782941965,33.787448259787766,0.000741127464882635,0.3094877446185136,-11.138575384344593,-0.004615670881750336,0.029962526701915383,2.8240051914993125,-0.6485449265546896,-0.04112158298832133,-0.0477786347068897,0.7585574143239028
3.2800000000000002,-0.02549193604487099,5.288395579770757,1105.8763227427,-0.015127888692724528,0.6275736336541891,33.67610780952035,0.0007648074215797039,0.3098857313665588,-11.129521504902671,-0.0037855864043007522,0.030216356983610484,2.823095463850919,-0.659182971530124,-0.04189250361070072,-0.04730688157306956,0.74931910425916
3.29,-0.025643170336249608,5.294686826791838,1106.212527485006,-0.015120054920015936,0.6306745056811316,33.56485772243548,0.0007883142246740373,0.31028959048386656,-11.120502530750306,-0.0029452085270032526,0.030448127294833975,2.822128738993728,-0.6696858117958536,-0.042658514845078405,-0.046823562806417134,0.7399346417178744
3.3000000000000003,-0.025794321962172864,5.301009101844997,1106.5476201926183,-0.015111970687048204,0.6337794648159557,33.45369764851768,0.0008116540664638641,0.31069900056672883,-11.111518391008005,-0.0020950848848406106,0.0306574435991662,2.821105920605839,-0.6800511868546297,-0.04341944022674027,-0.04632873131830387,0.7304061601176485
3.31,-0.025945389027568933,5.307362446828252,1106.8816017556744,-0.015103640433164176,0.6368885604612721,33.34262724175,0.0008348332320770763,0.31111382784670055,-11.10256899477665,-0.001235831226104178,0.030843993667783745,2.8200278449711913,-0.6902770828639037,-0.04417510988250335,-0.0458224551486233,0.7207359848094067
3.3200000000000003,-0.026096369813478962,5.313746904169274,1107.2144730603131,-0.015095069465561613,0.6400018386338344,33.23164615694144,0.0008578580258177409,0.31153397731585314,-11.093654247021593,-0.00036807736950537776,0.03100748217116358,2.8188953344518644,-0.700361536933511,-0.04492535530082204,-0.04530480546242412,0.7109264807924536
3.33,-0.026247262600944073,5.32016251629573,1107.5462349926738,-0.015086263091438271,0.643119345350396,33.12075404890101,0.0008807347519899208,0.31195935396625796,-11.08477405270819,0.0005075468662442133,0.031147613779782653,2.817709211409936,-0.710302586173285,-0.04567000797015058,-0.04477585342475514,0.7009800130660955
3.34,-0.026398065671005406,5.326609325635291,1107.8768884388949,-0.015077226617991912,0.6462411266277104,33.009950572437745,0.0009034697148976819,0.31238986278998643,-11.075928316801788,0.0013904116624331342,0.03126409316411792,2.8164702982074843,-0.7200982676930606,-0.04640889937894333,-0.044235670200665045,0.6908989466296374
3.35,-0.02654877730470411,5.333087374615625,1108.2064342851154,-0.015067965352420297,0.649367228482531,32.89923538236064,0.0009260692188450901,0.31282540877910997,-11.067116944267742,0.0022798872003499267,0.03135662499464635,2.815179417206587,-0.7297466186026728,-0.04714186101565464,-0.04368432695520257,0.6806856464823842
3.36,-0.026699395783081305,5.339596705664401,1108.5348734174745,-0.015058484601921182,0.6524976969316112,32.78860813347871,0.0009485395681362082,0.3132658969256999,-11.058339840071406,0.003175343661283011,0.03142491394184488,2.8138373907693226,-0.7392456760119548,-0.047868724368738756,-0.04312189485341651,0.6703424776236424
3.37,-0.026849919387178144,5.34613736120929,1108.8622067221106,-0.015048789673692328,0.6556325779917046,32.67806848060097,0.0009708870670751032,0.3137112322218277,-11.04959690917813,0.004076151226520967,0.031468664676190486,2.812445041257769,-0.7485934770307423,-0.048589320926650074,-0.042548445060355544,0.6598718050527164
3.38,-0.027000346388714333,5.352709383733688,1109.1884350848234,-0.015038885776911452,0.6587719177045461,32.56761607864417,0.0009931181377690506,0.31416132045006856,-11.040888056496527,0.004981679292227206,0.03148758372578788,2.8110031899887673,-0.757788063617416,-0.04930348233592851,-0.04196404898444679,0.6492759962295075
3.39,-0.02715067468702368,5.359312817947335,1109.5135593778396,-0.015028774204902505,0.6619157631098747,32.45725058682907,0.001015243908507197,0.31461609897325193,-11.03221318466851,0.005891265889197526,0.03148145183008092,2.8095126165224222,-0.7668276714275062,-0.05001104655856087,-0.04136878775696426,0.6385575169135067
3.4,-0.027300901691821915,5.365947711487189,1109.8375804555412,-0.015018451102372151,0.6650641625596173,32.34697167003541,0.0010372816953300103,0.3150755466763502,-11.023572193355706,0.006804207808619428,0.03145014730258193,2.80797404551652,-0.7757107907921607,-0.0507118598601683,-0.04076275529291236,0.6277189621098335
3.41,-0.02745102477950501,5.372614112189416,1110.1604991710963,-0.015007912263650187,0.6682171644949998,32.23677899352801,0.0010592492353706188,0.3155396452700265,-11.014964982016918,0.007719799035217418,0.03139355509697374,2.806388197892602,-0.7844359293738705,-0.051405769071456116,-0.04014604637726162,0.6167629356191086
3.42,-0.02760104132646891,5.37931206789018,1110.4823163776723,-0.014997153483066407,0.671374817357247,32.126672222571734,0.0010811642657621468,0.3160083764649437,-11.006391450110955,0.008637333553715838,0.03131156016693917,2.8047557945722073,-0.7930015948351251,-0.0520926210231295,-0.03951875579498272,0.6056920412419544
3.43,-0.027750948709109588,5.386041626425648,1110.8030329284372,-0.01498617055495061,0.6745371695875845,32.0166510224314,0.0011030445236377229,0.3164817219717649,-10.997851497096624,0.00955610534883919,0.031204047466161046,2.8030775564768766,-0.8014062948384157,-0.05277226254589377,-0.038880978331046194,0.5945088827789917
3.44,-0.02790074430382299,5.392802835631982,1111.1226496765585,-0.014974959273632592,0.6777042696272374,31.906715058371862,0.0011249077461304713,0.31695966350115296,-10.989345022432735,0.010475408405311819,0.031070901948322193,2.8013542045281503,-0.8096485370462319,-0.053444540470454105,-0.03823280877042272,0.5832160640308428
3.45,-0.028050425487005082,5.3995957433453485,1111.4411674752043,-0.014963515433442147,0.6808761659174312,31.796863995657947,0.0011467716703735201,0.317442182763771,-10.980871925578091,0.01139453670785823,0.030912008567105423,2.7995864596475686,-0.8177268291210644,-0.05410930162751582,-0.03757434189808283,0.5718161887981286
3.46,-0.028199989635051815,5.406420397401912,1111.758587177542,-0.014951834828709074,0.6840529068993908,31.687097499554508,0.001168654033499994,0.31792926147028194,-10.972432105991503,0.012312784241202763,0.03072725227619358,2.797775042756672,-0.8256396787254031,-0.05476639284778411,-0.03690567249899719,0.5603118608814713
3.47,-0.028349434124359158,5.413276845637838,1112.0749096367394,-0.014939913253763168,0.6872345410143419,31.577415235326374,0.0011905725726430213,0.3184208813313488,-10.964025463131776,0.013229444990069922,0.03051651802926946,2.7959206747770002,-0.8333855935217389,-0.05541566096196428,-0.036226895358136356,0.5487056840814917
3.48,-0.02849875633132306,5.420165135889291,1112.3901357059644,-0.014927746502934226,0.6904211167035095,31.46781686823839,0.0012125450249357262,0.31891702405763456,-10.95565189645772,0.014143812939184052,0.030279690780015918,2.794024076630094,-0.8409630811725615,-0.05605695280076152,-0.035538105260470985,0.5370002621988123
3.49,-0.028647953680240958,5.427085316249887,1112.7042662357865,-0.014915331187847134,0.693612682495143,31.35830206437023,0.0012345876418773894,0.31941768290361944,-10.947311304105899,0.015055180268231128,0.030016671278171314,2.792085962186636,-0.8483706878875711,-0.056690116624858906,-0.034839398538325954,0.5251982101726215
3.5,-0.02879702400327383,5.434037437005345,1113.0173020546501,-0.014902670879096101,0.6968092876584673,31.248870496739602,0.0012567040253374574,0.31992294941517296,-10.939003572954467,0.015962823787652923,0.029727494771120362,2.7901069852818305,-0.8556072880918822,-0.057315012870678105,-0.03413088469918349,0.5133022377829496
3.5100000000000002,-0.02894596533881095,5.441021549549777,1113.3292439798138,-0.014889772665942852,0.7000109818373684,31.1395218418723,0.0012788913811460402,0.3204329648372944,-10.93072858418899,0.016866012536731985,0.029412264512367135,2.7880877693951107,-0.8626719221663528,-0.057931508131066387,-0.033412679912287746,0.5013151027642511
3.52,-0.02909477572683634,5.448037705285869,1113.6400928284493,-0.014876643664859275,0.7032178146786288,31.030255776321244,0.001301146865672106,0.32094787079931064,-10.922486218951006,0.017764015494655637,0.029071084281313095,2.786028937771165,-0.8695636317751898,-0.058539469046479074,-0.03268490039839898,0.48923956322181805
3.5300000000000002,-0.02924345320733407,5.455085955616305,1113.9498494177283,-0.01486329099231726,0.7064298358290315,30.921071976639347,0.0013234676352846266,0.32146780893054877,-10.914276358382056,0.01865610164061136,0.028704057857359654,2.7839311136546825,-0.8762814585826018,-0.05913876225737164,-0.031947662378277356,0.4770783772609408
3.54,-0.029391995820288157,5.462166351943767,1114.2585145648222,-0.014849721764788697,0.709647094935359,30.81197011937954,0.0013458508463525703,0.3219929208603356,-10.90609888362368,0.01954153995378648,0.028311289019908283,2.7817949202903516,-0.8828244442527957,-0.05972925440419941,-0.03120108207268313,0.46483430298691175
3.5500000000000003,-0.02954040160568266,5.4692789456709425,1114.566089086903,-0.014835943098745474,0.7128696416443945,30.70294988109473,0.0013682936552449087,0.32252334821799816,-10.897953675817416,0.020419599413368475,0.027892881548360386,2.779620980922861,-0.88919163044998,-0.060310812127417845,-0.03044527570237645,0.452510098505021
3.56,-0.029688668603501615,5.476423788200513,1114.8725738011426,-0.014821962110659484,0.7160975256029205,30.594010938337853,0.00139079321833061,0.3230592326328634,-10.889840616104808,0.021289548998544676,0.027448939222117438,2.7774099187969004,-0.8953820588383617,-0.060883302067482284,-0.029680359488117588,0.4401085219205609
3.5700000000000003,-0.029836794853729066,5.483600930935165,1115.1779695247124,-0.014807785917002615,0.71933079645772,30.48515296766181,0.0014133466919786463,0.32360071573425836,-10.881759585627393,0.022150657688502565,0.026979565820580836,2.775162357157158,-0.9013947710821494,-0.061446590864848175,-0.028906449650666688,0.42763233133882156
3.58,-0.02998477839634905,5.490810425277581,1115.482277074784,-0.014793421634246757,0.7225695038555756,30.376375645619536,0.0014359512325579852,0.3241479391515099,-10.873710465526711,0.02300219446242946,0.02648486512315206,2.7728789192483223,-0.90722880884555,-0.06200054515997086,-0.028123662410784022,0.41508428486509547
3.59,-0.030132617271449558,5.4980523226328994,1115.7854972685202,-0.014778876374948487,0.7258136974476213,30.267678648767355,0.0014586039985882723,0.3247010445010499,-10.865693136946451,0.023843428312229062,0.02596494096767239,2.7705602282935398,-0.9128832139337654,-0.06254503159933286,-0.02733211399382108,0.40246714061504607
3.6,-0.03028030960753239,5.505326676492595,1116.087630915406,-0.01476415392131037,0.7290634305859196,30.159061656562262,0.0014813039779469957,0.3252601624307376,-10.857707482854655,0.024673639046216687,0.02541994690077024,2.768206889191805,-0.9183571480810208,-0.06307992195604861,-0.02653192453048689,0.3897836655274099
3.61,-0.030427853782528512,5.512633546234037,1116.3886788032657,-0.014749248660085569,0.7323187670634314,30.05052435664454,0.0015040553194161567,0.32582539264437327,-10.849753391366175,0.025492136987495986,0.024850176705335163,2.765819455146814,-0.9236501113600669,-0.06360510246626279,-0.02572322516911489,0.37703665143219395
