time,pos_x,pos_y,pos_z,vel_x,vel_y,vel_z,acc_x,acc_y,acc_z,omg_p,omg_q,omg_r,orient_0,orient_1,orient_2,orient_3
0.0,0.0,0.0,1000.0,0.0,0.0,0.0,0.0,0.0,0.0,0.0,0.0,0.0,0.9990482215818578,-0.043619387365336,0.0,0.0
0.01,2.8247507533655307e-41,6.468969474818268e-16,1000.0,2.767383257675595e-38,-9.56201615408483e-13,-1.0929434476103854e-11,2.619508377275468e-35,-2.940205142622864e-09,-3.3606698561027224e-08,-8.491248890634674e-36,2.545075637028893e-41,-1.2992518207511797e-35,0.9990482215818578,-0.043619387365336,-2.8921259679253657e-40,-6.623939425860915e-39
0.02,-2.5332003798245553e-39,-5.801289161940634e-14,999.9999999999993,-2.4817539427546e-36,8.575093899720707e-11,9.801377177489744e-10,-2.3491416396160665e-33,2.6367384007882217e-07,3.0138057829708673e-06,7.614843500550486e-34,-2.28239130929423e-39,1.1651524304908238e-33,0.9990482215818578,-0.043619387365336,2.593621611294407e-38,5.940264233767735e-37
0.03,-4.854807227477624e-39,-1.1118007393488392e-13,999.9999999999987,-4.756211578864746e-36,1.6433926100842693e-10,1.8784063487234684e-09,-4.50206383245789e-33,5.053234930432553e-07,5.775873955298466e-06,1.4593633238419099e-33,-4.374138703177188e-39,2.232981838196211e-33,0.9990482215818578,-0.043619387365336,4.970602816949805e-38,1.1384349206997891e-36
0.04,1.5174330585198108e-40,3.4750776237334713e-15,1000.0,1.4866157078772188e-37,-5.136637064711385e-12,-5.871203030995362e-11,1.4071785285875208e-34,-1.579454214475454e-08,-1.805324428127126e-07,-4.5614296268147267e-35,1.3671938677986688e-40,-6.979474779503751e-35,0.9990482215818578,-0.043619387365336,-1.553626474089719e-39,-3.5583262170860385e-38
0.05,7.158179665774534e-38,1.6392966953983246e-12,1000.0000000000188,7.012805125866978e-35,-2.42310333102585e-09,-2.7696197808620597e-08,6.638076502218358e-32,-7.450751766347183e-06,-8.51624823842396e-05,-2.151761003109871e-32,6.449457054266686e-38,-3.2924242795371993e-32,0.9990482215818578,-0.043619387365336,-7.328914690896612e-37,-1.6785675142851877e-35
0.06,7.302993613899984e-34,1.2107993688115062e-06,1000.0000138395002,7.154678066353044e-31,0.000814452353163037,0.009309232994760564,6.772368474637151e-28,0.5048069338248212,5.769969656414291,-2.1952923226396933e-28,6.579933150551241e-34,-3.3590318503283426e-28,0.9990482215818578,-0.043619387365336,-7.477182703354828e-33,-1.7125258668676164e-31
0.07,-3.601269538659651e-31,6.465633841482997e-05,1000.0007390253296,-3.5281318239458117e-28,0.014884803858836539,0.17013408662284552,-3.3396064109749777e-25,2.3033314896356876,26.327199397133104,1.0825477588982582e-25,-3.244712247371483e-31,1.656413755990543e-25,0.9990482215818578,-0.043619387365336,3.687166075749129e-30,8.444848187705842e-29
0.08,-1.0678567507625146e-30,0.0003533156757752096,1000.0040384166534,-1.0461697868865517e-27,0.0468409713300804,0.5353947522149638,-9.902677965550744e-25,4.080472283604031,46.640011621562095,3.2099955861470666e-25,-9.621295602680816e-31,4.91163627826848e-25,0.9990482215818578,-0.043619387365336,1.0933269900804694e-29,2.504085864609462e-28
0.09,-2.0124426472477786e-30,0.001056340107814622,1000.0120740226819,-1.971572211243938e-27,0.0966839831684034,1.1051029844541485,-1.866221423950823e-24,5.857545654907991,66.95205320141076,6.049436884138911e-25,-1.8131931627333484e-30,9.256284896919741e-25,0.9990482215818578,-0.043619387365336,2.0604429017786037e-29,4.7191059874950665e-28
0.1,6.421951063271132e-29,0.0023604787982193956,1000.0269803961232,6.291528494304919e-26,0.1682162592468064,1.922720641365859,5.955341223875759e-23,8.529174553370492,97.48891124440584,-1.9304494308654068e-23,5.786121545007037e-29,-2.953793923867057e-23,0.9990482215818578,-0.043619387365336,-6.575125756742811e-28,-1.505924541776606e-26
0.11,1.4180353600878355e-26,0.004475579273209721,1000.0511561051778,1.389236664375979e-23,0.2551769270346706,2.9166856224642004,1.3150029256907865e-20,8.799113685980608,100.5743296487015,-4.262638451863597e-21,1.2776374138869147e-26,-6.5222923519485e-21,0.9990482215818578,-0.043619387365336,-1.4518579678083671e-25,-3.325242171458666e-24
0.12,-1.195346530733726e-24,0.00747053754902275,1000.0853886349149,-1.1710703934964338e-21,0.3441432762133123,3.933575646761803,-1.1084943502620525e-18,8.993956851738952,102.80139722415497,3.5932320368172775e-19,-1.0769967330932652e-24,5.498029001794306e-19,0.9990482215818578,-0.043619387365336,1.2238576228665756e-23,2.803044836100836e-22
0.13,-5.349116333096998e-24,0.011365611377898736,1000.1299095325021,-5.240481825143229e-21,0.43505641787057003,4.972717610912607,-4.96045714081997e-18,9.188630116517153,105.0265228225191,1.6079534831584535e-18,-4.819506868978901e-24,2.4603406608196484e-18,0.9990482215818578,-0.043619387365336,5.476702053790598e-23,1.2543486369585809e-21
0.14,1.638012430540084e-22,0.016179782502453065,1000.1849357602501,1.6047462491125336e-19,0.5279212067004866,6.034167004323442,1.5189967747663677e-16,9.386473716067135,107.28788551314254,-4.923893273449981e-17,1.4758348237100507e-22,-7.534082893000919e-17,0.9990482215818578,-0.043619387365336,-1.6770818736857587e-21,-3.8410805292387154e-20
0.15,1.0272979112804234e-22,0.02193180625059225,1000.250681692538,1.0064346516008024e-19,0.6227294444974558,7.117830121075435,9.526559047202584e-17,9.577157824845981,109.46741484978996,-3.088075023652321e-17,9.255864018640854e-23,-4.7250847887896686e-17,0.9990482215818578,-0.043619387365336,-1.0518007517901223e-21,-2.408976837523614e-20
0.16,1.1521438507643738e-19,0.028631539635305996,1000.3272599955399,1.1287451111360509e-16,0.7166508724025827,8.191356954381483,1.0684307156331799e-13,9.205030859556429,105.21398417365813,-3.4633640447740386e-14,1.0380714976142232e-19,-5.2993170958159316e-14,0.9990482215818578,-0.04361938736533602,-1.179624483898663e-18,-2.7017360976888232e-17
0.17,4.900556282057705e-18,0.03625221526585228,1000.4143647165793,4.801031521845049e-15,0.8068318660560256,9.222130428572699,4.544488825736389e-12,8.830757624924365,100.93602154273631,-1.473115567592544e-12,4.4153581998319466e-18,-2.2540242407480092e-12,0.9990482215818578,-0.04361938736533675,-5.0174430659882185e-17,-1.1491629102743664e-15
0.18,1.705728814240848e-17,0.04475581095604407,1000.5115612600797,1.6710873895832668e-14,0.8932649849698265,10.21006549849238,1.581792982244712e-11,8.455615280294625,96.64812496441829,-5.127449876556231e-12,1.5368466911037242e-17,-7.845546248530885e-12,0.9990482215818577,-0.043619387365338616,-1.7464134108210764e-16,-3.999873025616596e-15
0.19,-2.524869580960094e-16,0.05410448345755092,1000.6184170757324,-2.473592333000853e-13,0.9759466694669157,11.155121475795724,-2.3414161447599813e-10,8.081469406832056,92.37161713550529,7.589800977229917e-11,-2.2748853326335737e-16,1.1613206568095293e-10,0.9990482215818595,-0.043619387365297295,2.5850921083990573e-15,5.920728808569071e-14
0.2,-4.276409855288793e-15,0.06426075534149502,1000.7345037945521,-4.189560803686849e-12,1.054951229049925,12.058147709374,-3.965691991495435e-09,7.744299895185082,88.51773815300818,1.2854960883312064e-09,-3.853007747206847e-15,1.9669463877980865e-09,0.9990482215818864,-0.04361938736468048,4.3784096622461336e-14,1.002802806861383e-12
0.21,-2.601018970323743e-14,0.07519665946438954,1000.8595017505742,-2.548195214319181e-11,1.1322096756639493,12.941215716080116,-2.4120326276920883e-08,7.732942334256344,88.38784594259576,7.818707339034123e-09,-2.3434952641162534e-14,1.1963457763397865e-08,0.9990482215820319,-0.04361938736134899,2.663057793037916e-13,6.099296401430192e-12
0.22,1.0634238811574003e-13,0.08690588228714671,1000.9933387803538,1.0418269438537498e-10,1.209662615306597,13.826507347812559,9.861570129568654e-08,7.758607746634888,88.68165781968509,-3.19667030459013e-08,9.581355836594684e-14,-4.891247173499727e-08,0.999048221581146,-0.04361938738163687,-1.0887883888314552e-12,-2.4936909440268082e-11
0.23,-2.001263504787712e-12,0.09939083675349891,1001.136042455086,-1.960620104534241e-09,1.2873880350242202,14.71490530705083,-1.855854542097617e-06,7.787038671282442,88.99938132537424,6.015832191441977e-07,-1.8031208534918729e-12,9.204866125977302e-07,0.9990482215952515,-0.04361938705856904,2.0489971173428003e-11,4.692891298499826e-10
0.24,9.740211766146798e-12,0.11265443354244438,1001.2876461036483,9.542399072107253e-09,1.3653853713797781,15.606461578107114,9.032501818951459e-06,7.810867601250771,89.31210051121583,-2.927924251557441e-06,8.775845315197108e-12,-4.480036993207487e-06,0.9990482215166698,-0.04361938885838035,-9.972532744137692e-11,-2.2840448013738533e-09
0.25,-3.439537186875493e-11,0.12669956778125352,1001.4481825589256,-3.369684073460671e-08,1.4436752618193511,16.501158850248206,-3.1896253020681854e-05,7.851654048280825,89.62660592952469,1.0339307384043002e-05,-3.0989928178767493e-11,1.5820245192482997e-05,0.9990482218120543,-0.04361938209298496,3.521576126302686e-10,8.065591610769312e-09
0.26,9.715323941628783e-11,0.14152847780658298,1001.6176782639401,9.518016691180707e-08,1.522185365709609,17.399011138912865,9.009422308400156e-05,7.839984740715709,89.94533328067703,-2.9204429291052874e-05,8.753421603737265e-11,-4.468589770375159e-05,0.9990482209316441,-0.04361940225762979,-9.947051301752744e-10,-2.2782086955916934e-08
0.27,-2.2070409723986418e-10,0.1571451681601056,1001.7961766727417,-2.1622184643169178e-07,1.601112558480173,18.299998839168463,-0.00020466805112983092,7.96218650912699,90.249689248634,6.634402764965001e-05,-1.9885245457794473e-10,0.00010151345206103318,0.9990482230589554,-0.04361935353434616,2.2596827351738296e-09,5.175432095785329e-08
0.28,-2.226500036309078e-09,0.17355481738037423,1001.9837323833499,-2.1812823366290567e-06,1.6808477208379606,19.204092231417164,-0.002064725707274129,8.587030416986385,90.49813965237698,0.000669289704260894,-2.006056991578013e-09,0.0010240847701803602,0.9990482364830663,-0.043619046072623006,2.2796059315761472e-08,5.221062904263962e-07
0.29,-5.575520904355461e-09,0.19075950802650743,1002.1803704778529,-5.46228837540803e-06,1.7612822211895807,20.11130141599905,-0.005170411477625936,9.611862743304558,90.70206397039269,0.001676011083010142,-5.0234954006167314e-09,0.002564476061468177,0.9990482588969253,-0.04361853271246163,5.7085067675386925e-08,1.3074396986732207e-06
0.3,-9.723789729715372e-09,0.2087609332261999,1002.3861123260609,-9.526310548678024e-06,1.8422445567277146,21.02164146048882,-0.009017272984353297,10.87469928158215,90.87952207925657,0.0029229877594275,-8.761049204502307e-09,0.0044724836327177005,0.9990482866598795,-0.043617896838265106,9.955719013597762e-08,2.2801938926010542e-06
0.31,-1.4127329540725128e-08,0.22756078610714597,1002.6009792977843,-1.3840419442348407e-05,1.9235632246450416,21.935127432461147,-0.013100857849624208,12.213555825319785,91.04857385554409,0.00424669932904306,-1.2728599926042897e-08,0.0064979037907221225,0.9990483161312756,-0.043617221834436504,1.4464290901946044e-07,3.312808219112612e-06
0.32,-1.824216336572103e-08,0.2471607597970401,1002.8249927628335,-1.7871685642328556e-05,2.0050667221342424,22.85177439949073,-0.016916713695606683,13.466448168018097,91.22727917583069,0.005483625387386914,-1.6436029088046674e-08,0.008390532842274647,0.9990483436704607,-0.0436165910853789,1.8677270664776238e-07,4.277722025110608e-06
0.33,-2.1524314233039422e-08,0.26756254742357677,1003.0581740910187,-2.1087179734527842e-05,2.0865835463879963,23.77159742915225,-0.019960388144468724,14.471392103177717,91.43369791669178,0.006470245529989157,-1.9393218213321807e-08,0.00990016709416847,0.9990483656367817,-0.043616087975495356,2.2037706534281058e-07,5.047374657497767e-06
0.34,-2.3429805171016613e-08,0.2887678421144504,1003.3005446521503,-2.2953972304855646e-05,2.167942194598984,24.694611589020397,-0.02172742881837835,15.066403424299276,91.68588995470284,0.007043039352379881,-2.1110048824676466e-08,0.010776602853196792,0.9990483783895853,-0.04361579588918896,2.3988646742653197e-07,5.494205463176801e-06
0.35000000000000003,-2.3414659207988926e-08,0.31077833699735546,1003.5521258160385,-2.293913393922135e-05,2.2489711639598857,25.620831946669856,-0.021713383339503563,15.089497924883398,92.00191516643932,0.007038486450089183,-2.1096402444918817e-08,0.010769636426152808,0.9990483782882185,-0.04361579821086276,2.397313952208535e-07,5.490653789050431e-06
0.36,-2.09348993722927e-08,0.33359572519998626,1003.8129389524937,-2.0509735223534333e-05,2.32949895166338,26.550273569675316,-0.019413799330012395,14.378691398430728,92.39983342847664,0.006293066418647165,-1.8862160596857073e-08,0.009629064119829733,0.9990483616920282,-0.043616178324919846,2.143423310477026e-07,4.909158982021379e-06
0.37,-1.5446548692264253e-08,0.3572216998500376,1004.0830054313262,-1.5132846743703995e-05,2.4093540549021495,27.48295152561147,-0.01432422441207283,12.771999638441892,92.89770461739026,0.004643258853583913,-1.391720480329936e-08,0.007104682241020763,0.9990483249603613,-0.04361701961576329,1.581497572290061e-07,3.622160388992359e-06
0.38,-6.405630196239869e-09,0.38165795407520364,1004.3623466223463,-6.27553908563966e-06,2.4883649708688726,28.418880882053003,-0.005940206207852884,10.107438438417507,93.51358860975563,0.0019255433504295192,-5.771416587053849e-09,0.00294628709651908,0.9990482644525649,-0.04361840546779615,6.558415608669078e-08,1.5020973568660843e-06
0.39,6.021220192215174e-09,0.40690756771726944,1004.6509971103578,5.898936014394002e-06,2.566584208814312,29.35805671437305,0.005583726888517747,6.434627400379496,94.24194332876058,-0.0018099890482903142,5.425066547246708e-09,-0.0027694766657053124,0.9990481812838763,-0.04362031033795735,-6.164836757987985e-08,-1.411954586629782e-06
0.4,2.856644413160592e-09,0.4330103284987978,1004.949341295894,2.79862919328167e-06,2.649994128978515,30.299944881896497,0.002649084689067084,7.404576801662856,94.45245646047726,-0.0008587121775359271,2.5738115445858307e-09,-0.001313921396645542,0.9990482024633071,-0.04361982525076422,-2.9247803469340557e-08,-6.698728916685828e-07
0.41000000000000003,-1.3303953098941394e-07,0.4599952607857095,1005.2572814120537,-2.8667881225548945e-05,2.7426527546417248,31.24406300997672,-0.003263352650806259,9.291339780323998,94.56098522041539,0.008738172026078309,-6.002590627844441e-07,0.01351372671154382,0.999049107797363,-0.043599072421674455,1.3656938911413498e-06,3.129764838864552e-05
0.42,-5.885785490311587e-07,0.4878860056323499,1005.5744470390015,-6.267850279729239e-05,2.835715852538334,32.19124974445446,-0.0036083579367875147,9.334676105721059,94.87576826753231,0.01874256014247399,-5.3304196351826084e-06,0.029406899187859326,0.9990520813936274,-0.04353060137181327,6.011106584557592e-06,0.00013804107769457933
0.43,-1.4067088626522892e-06,0.5167084323453159,1005.9011097850502,-0.00010005895122335368,2.9289022050527063,33.141610687031275,-0.003991288982996109,9.334530061482052,95.19491059771121,0.02897943176192647,-1.9433088013870855e-05,0.04614952094185816,0.9990571973990902,-0.04341157342376465,1.4156960013324188e-05,0.0003263265003457852
0.44,-2.6240804980541912e-06,0.5464628289956383,1006.2372946250744,-0.00014225590496307958,3.022099308660229,34.09514230227055,-0.004501283916041241,9.314972037161324,95.51322724547119,0.03943900803726555,-4.850235907816369e-05,0.06376411319122406,0.9990644457112858,-0.043240835629995915,2.5937952050086756e-05,0.0006004942776597306
0.45,-4.289291198701703e-06,0.5771487495507617,1006.5830279965014,-0.00019080778289802205,3.1151940708555874,35.05185563947753,-0.0052112240522635645,9.294959101438872,95.82898523700608,0.05011035234336295,-9.852209331702791e-05,0.08227245541566348,0.9990737859044656,-0.043017285184460706,4.146667819353058e-05,0.0009649304908194284
0.46,-6.4808528429016775e-06,0.6087642234898604,1006.9383430779594,-0.00024747999994097707,3.2080715888270115,36.01179933991956,-0.006122470925600899,9.270707583842906,96.15019566721345,0.060979240810781196,-0.00017644607611376636,0.10169400205085478,0.9990851026243455,-0.042739927912868625,6.0801638136275676e-05,0.0014241591779339787
0.47000000000000003,-9.282958874387042e-06,0.6413069748509214,1007.3032740200224,-0.0003140806647231639,3.30061615108866,36.97502374316701,-0.007225997961245729,9.23506872612342,96.48552084422528,0.0720308628086324,-0.0002894086441069654,0.12204784461400357,0.9990982660691161,-0.042407790425905874,8.399107961890175e-05,0.0019827317454811193
0.48,-1.2805649142966577e-05,0.6747730331617952,1007.6778534774326,-0.0003926040590552757,3.392699448370213,37.94148250821347,-0.008526835088730061,9.183890646006153,96.82357127830468,0.08324845951595888,-0.00044529515770445763,0.14335293318780806,0.9991130765603732,-0.04201999681740421,0.00011103704262746178,0.002645346481739576
0.49,-1.7185263282554116e-05,0.7091567037163862,1008.0621125828616,-0.00048523390363602696,3.484180352636104,38.91103091757857,-0.010044315310450878,9.116070906115318,97.13255394843394,0.09461328974806256,-0.0006527551749720011,0.16562807393952264,0.9991292633173947,-0.041575770374316215,0.00014189454885214022,0.0034168511332780954
0.5,-2.2565189394430855e-05,0.744451817201266,1008.4560816382392,-0.0005941951990775694,3.574913652570913,39.88348310926411,-0.011797550911363763,9.030826673866764,97.3845874250914,0.10610606333430547,-0.0009205944838492242,0.18889184397402936,0.9991465341683854,-0.04107436516574401,0.00017650450154889827,0.004302121050706796
0.51,-2.9128679397355628e-05,0.780649505865557,1008.8597857664572,-0.0007219356233441167,3.6647303068051555,40.85840372143983,-0.013799797546730382,8.928616989012262,97.58457532044814,0.1177043650962043,-0.0012584472361188196,0.21316130835576957,0.9991644733060322,-0.04051521412643547,0.00021472622997229635,0.005306173550014717
0.52,-3.707561348561099e-05,0.8177397766576888,1009.2732479296346,-0.0008709956674210496,3.753451389737724,41.83525395936228,-0.01606187437735262,8.810417228537535,97.75105054608488,0.12938447632050407,-0.001676292736072691,0.23845290136429823,0.9991826133403562,-0.03989782481307115,0.00025638503522861053,0.006434085125494563
0.53,-4.662416721589815e-05,0.8557115081733281,1009.6964885399566,-0.0010439908397099215,3.8409082339718297,42.81362314046222,-0.018594362357665803,8.677135570988606,97.90007383793888,0.14112124046274144,-0.0021843462897942084,0.2647823360634556,0.9992004259894108,-0.039221791510045234,0.00030126823918721923,0.007690982535423408
0.54,-5.8038128033074494e-05,0.8945507667457389,1010.1295216511238,-0.0012437234717686723,3.9269579039053597,43.79342177640409,-0.02140726674495843,8.529507937166175,98.0414126357991,0.1528859163166142,-0.0027934105063581183,0.29216352726293093,0.9992172311316324,-0.038486924755691765,0.00034906847424896043,0.00908211773999185
0.55,-7.158995210543081e-05,0.9342431115568999,1010.5723603607955,-0.0014730292165653104,4.011461507917198,44.774611522418496,-0.024510451753846793,8.368224737301789,98.1836423549983,0.1646491046415825,-0.0035143826476331697,0.3206100829853015,0.9992323190861476,-0.037693076969199886,0.00039946028307484647,0.010612765743348691
0.56,-8.759148678045008e-05,0.9747723232187879,1011.0250182798259,-0.001734853091234364,4.094282241194837,45.75719590195996,-0.027912532015590782,8.193523786290342,98.32999956573744,0.17637886338745587,-0.004358263576076174,0.3501348903256561,0.9992448323515586,-0.03684030590699152,0.00045203420578137125,0.01228829180702578
0.5700000000000001,-0.00010639470969849042,1.0161203704013015,1011.4875095418932,-0.0020322515291239,4.175285424890066,46.741221092298396,-0.031620849131622476,8.005181811448587,98.47828181803217,0.18804065998255912,-0.005336159698634521,0.38075010192452163,0.9992537628323223,-0.03592887851555241,0.0005062952037645402,0.014114153143476199
0.58,-0.00012835965369010295,1.0582688635699362,1011.959848376696,-0.0023682904056869587,4.254336122617865,47.72672988027042,-0.03564154341443626,7.80298901264054,98.62632293578395,0.1995994255292912,-0.006459128432103887,0.41246771917808506,0.9992580687063377,-0.03495910792389004,0.0005617304641549719,0.016095820658827063
0.59,-0.000153888875666262,1.1011975305731763,1012.442049507236,-0.0027460657594112455,4.331296996154918,48.7137289488907,-0.03997297289223746,7.586968208468001,98.77386643492339,0.21101723492618113,-0.007737861678909578,0.445298939230938,0.9992565247771965,-0.033931557448945694,0.0006177324336954583,0.01823883029400208
0.6,-0.00018340271744722797,1.1448853119838933,1012.9341278618889,-0.0031686861218401248,4.406029710244567,49.70220995242118,-0.044610257086578,7.357239152643073,98.92145059629063,0.2222549689164097,-0.009182897671940122,0.47925462276705905,0.999247829127424,-0.03284689506964744,0.000673653941993312,0.02054874517513329
0.61,-0.0002173503015914129,1.1893099101295839,1013.4360983434766,-0.003639233826170989,4.478397164416777,50.6921672211451,-0.04954946841104345,7.113944107387281,99.06940617600569,0.23327172750266334,-0.010804221820128931,0.5143450490021841,0.9992305449782769,-0.03170596783760054,0.0007287860944017843,0.02303116694949561
0.62,-0.00025625266536609425,1.2344459335044986,1013.9479757891443,-0.004160725506839473,4.548265358099795,51.683601909618126,-0.05478909186508962,6.857280891975405,99.21753776902794,0.2440221619078523,-0.012610436634817212,0.5505790440431148,0.999202898517258,-0.030510070304515656,0.0007822657774554314,0.025691793489612244
0.63,-0.0003006420198412987,1.2802675100257217,1014.4697750258102,-0.004736167375866154,4.615500779076966,52.67651621427902,-0.060327962818505006,6.587456064698789,99.3655692235284,0.25446023311714033,-0.014609926389362904,0.5879652081477044,0.9991630634078693,-0.029260566733478165,0.0008332059277392724,0.02853633754113449
0.64,-0.00035107271413547294,1.3267478436089357,1015.0015108553102,-0.005368498415659897,4.679972339493028,53.67091038916565,-0.06616029128305624,6.304716698416466,99.5132829293907,0.2645387506951135,-0.016809911050795122,0.6265116786790644,0.9991090751171808,-0.02795899875889422,0.0008806746199489785,0.03157052438475762
0.65,-0.00040814885322065976,1.373858061452056,1015.5431980231048,-0.006060506508286205,4.741554400309526,54.66678032271813,-0.07226989165513333,6.0094009235576955,99.66059285055726,0.2742079363579346,-0.019214993776651094,0.6662255526320431,0.9990386585120998,-0.026607306661938772,0.0009236391004887629,0.03480010747402217
0.66,-0.0004724814401706478,1.4215689994381138,1016.0948512665956,-0.006814957445233043,4.800122094114436,55.66412130132045,-0.07863914188263182,5.701859794769948,99.80743063470193,0.28341765070002056,-0.0218294066480898,0.7071137805304981,0.9989494947152032,-0.02520748677603221,0.000961052524952146,0.03823084413196295
0.67,-0.0005446968015594116,1.4698503766453825,1016.6564852716917,-0.0076344102032304215,4.855554506019047,56.66292771394806,-0.08524789039892598,5.382514520868165,99.95369020877783,0.292116628252025,-0.02465541328333922,0.7491826788056086,0.998839073343208,-0.02376176826075069,0.0009918212688422507,0.041868495255662504
0.68,-0.0006254522331813933,1.5186696550586267,1017.2281146202336,-0.00852100578062499,4.907738709294287,57.663192135888835,-0.09207087341812326,5.051928094192771,100.09918926511145,0.3002513277383869,-0.02769129898224368,0.7924372823695979,0.9987044969741574,-0.02227285082381282,0.0010147571637971942,0.04571882896545334
0.6900000000000001,-0.0007154090265617909,1.5679940143086537,1017.8097538805151,-0.009476831569649473,4.956562807111126,58.66490690746692,-0.09908216319775222,4.71068090690618,100.24373673789677,0.3077679295800116,-0.03093483885043433,0.8368824636492344,0.9985428191149224,-0.020743493597758667,0.0010286603963187658,0.04978761404538882
0.7000000000000001,-0.0008152539128360754,1.6177896376218082,1018.4014175237965,-0.010503662832417753,5.00192139158125,59.668062786542066,-0.10625121017563191,4.359383350048537,100.3871832533324,0.3146122280805187,-0.03438083992583456,0.8825223191119149,0.9983508591106685,-0.019176717734914948,0.0010323070248764096,0.05408059925272745
0.71,-0.000925719930348877,1.6680208944895019,1019.0031198447082,-0.011602706666887754,5.043720866504175,60.672647650446024,-0.11353905178444117,3.9987004210116837,100.52945532873152,0.32072931470202515,-0.03801870653262041,0.9293595327618516,0.9981250100667342,-0.01757602133693796,0.0010244291881692396,0.058603496890357196
0.72,-0.0010475450368688712,1.7186519497947506,1019.6148751170682,-0.012775103088052617,5.081869004820254,61.67864905921462,-0.12090578407732104,3.629304354719523,100.67048704288028,0.32606421972609295,-0.04183721208400043,0.9773966330173992,0.9978616158524793,-0.015944957152476232,0.0010037544897792564,0.06336201467731002
0.73,-0.0011814677259230735,1.769646107316372,1020.2366974683474,-0.014021511892084532,5.116281769397348,62.6860537447085,-0.128308050967366,3.2519691982382337,100.81017807861065,0.33056291518785974,-0.04582105561859806,1.0266357421874561,0.9975567368532958,-0.014287363685276066,0.000969019229841215,0.06836180981955406
0.74,-0.0013282273706478943,1.8209652570701507,1020.8686007857435,-0.015341804450688354,5.146888569346885,63.69484707908821,-0.13569682863546462,2.8676361540651003,100.94837164739057,0.3341729192958513,-0.04994824685660109,1.077078315829398,0.9972059680298844,-0.012607548592521523,0.0009189739865120427,0.0736084565905826
0.75,-0.0014885632425906496,1.8725711462427095,1021.510598930659,-0.016735767139376752,5.173620290030797,64.70501428082258,-0.14302247604488377,2.47726330738826,101.08490672923507,0.33684194172326953,-0.054196077250936364,1.128725724752398,0.9968048547147743,-0.010909868541030716,0.0008523718094179142,0.07910751991207204
0.76,-0.0016632048281828634,1.9244249090961871,1022.16270557914,-0.01820255928129716,5.196419934925613,65.71653910749538,-0.15023051314405195,2.0818809650119747,101.21967648871126,0.33852024457253477,-0.058536671578100934,1.1815781225346538,0.9963486012759136,-0.009198969652503981,0.0007680268661667704,0.08486447679381989
0.77,-0.0018528671063453347,1.9764867711647376,1022.8249341324216,-0.019740410525476804,5.215248473945981,66.72940315076744,-0.15725928550950774,1.682626510232284,101.35265442494611,0.33916187420320354,-0.06293449444834323,1.235633858075519,0.995831906563745,-0.007479927197350561,0.0006648439384987647,0.09088467390659116
0.78,-0.0020582630554627024,2.028716878668578,1023.4972979639962,-0.021347456033618623,5.230068676372581,67.74358782834102,-0.16404648305163042,1.2806467676048572,101.48382046163051,0.3387213090387214,-0.06735324847550635,1.290891115437888,0.9952494188195581,-0.0057578576498770444,0.0005417382901045631,0.09717344391170593
0.79,-0.0022800711547619136,2.0810751366010085,1024.1798102175912,-0.023021027194624667,5.240857732494126,68.75907461249706,-0.1705266605649059,0.8771209759706926,101.61315134612852,0.33715827974109003,-0.0717507039684121,1.3473472939518907,0.9945953813250957,-0.004038147822133689,0.000397756632946907,0.10373597496036652
0.8,-0.0025189236492221137,2.133521126673667,1024.872483729015,-0.024757378216580472,5.247612158997518,69.77584504866047,-0.1766301712999334,0.47327181436470533,101.74061956903118,0.33443955579050766,-0.07607668102263869,1.4049987412834581,0.9938634946531977,-0.0023265468208778393,0.00023212184015856713,0.1105772615376964
0.81,-0.0027754476872341215,2.1860144145433624,1025.5753313055216,-0.02655266020107521,5.250330331294006,70.79388068668214,-0.1822870268287619,0.07032818501267205,101.86619846504966,0.3305326556205136,-0.08028026369567447,1.463841719619325,0.9930474070617739,-0.0006288354129034448,4.407562917048127e-05,0.11770227843810656
0.8200000000000001,-0.0030502082120245737,2.2385147858948784,1026.2883655203839,-0.028402097957366413,5.249027539153375,71.81316305316975,-0.1874256489644761,-0.33037457861860686,101.98989957164981,0.32541366602714056,-0.08430453391798898,1.5238720947075945,0.9921402878298683,0.0010489950501916994,-0.00016692249076603318,0.12511579534464579
0.8300000000000001,-0.003343694757085119,2.290982293147306,1027.011598663223,-0.03029979337412824,5.243739577191127,72.83367364655392,-0.1919725322958895,-0.7273721191816636,102.11178073852324,0.3190690610138732,-0.0880852973944551,1.585085251703922,0.9911347255826546,0.0027006979302196944,-0.00040114898692710773,0.13282233328908652
0.84,-0.0036563888299987863,2.3433770339065023,1027.7450429979035,-0.03223974462641592,5.23450422552583,73.8553940041087,-0.19585408130641194,-1.1191917516781986,102.23190287076429,0.31148638252320093,-0.09155773881397977,1.6474764978223628,0.9900232534994284,0.004320007363302642,-0.0006588529452865185,0.14082638797086058
0.85,-0.003988676384752989,2.3956599030836037,1028.488710550072,-0.03421495902528564,5.2213798641341995,74.87830677152478,-0.19899740324281662,-1.5043450787483588,102.35033432483232,0.3026653068624971,-0.0946520174184435,1.7110397987209574,0.9887978427258611,0.005900551240344396,-0.0009399685580724061,0.14913217096402304
0.86,-0.004340838540981185,2.4477926703342607,1029.24261308402,-0.03621735677893239,5.204447473637181,75.90239581056571,-0.20133037637197976,-1.8813264645886267,102.46715163227444,0.29261882326885724,-0.09729277890009137,1.7757676482014793,0.9874498477858054,0.007435840887835379,-0.001244084539332094,0.15774358212123143
0.87,-0.00471314530529568,2.4997372158308147,1030.0067623420848,-0.03823875970429881,5.183790147061848,76.92764515370621,-0.20278110480195646,-2.2486279846135058,102.58243726498603,0.2813613143354432,-0.0994042832083801,1.8416524332929,0.9859705629936016,0.008919383909287294,-0.001570753830876373,0.16666448805091225
0.88,-0.005105735890680276,2.551456915221464,1030.7811698711978,-0.040270016066904384,5.159512736559864,77.95404130023982,-0.20328192841714554,-2.6047097249205304,102.6963991585846,0.26892336577903486,-0.10090842603938967,1.9086858236036266,0.9843506304814196,0.010344738613902088,-0.0019191176667239978,0.175898361906614
0.89,-0.005518619612786527,2.60291662938214,1031.5658470242217,-0.042301007252351634,5.131741704297606,78.98157319937437,-0.20276939385156612,-2.948000001505114,102.80936985263814,0.2553516554040471,-0.10172475503746471,1.9768587762378047,0.9825800446685,0.011705513669098451,-0.002287908394432963,0.18544828608325598
0.9,-0.005951791619200688,2.6540814001816373,1032.360805138588,-0.044321530263696854,5.100605644945222,80.0102299896647,-0.20118073706466447,-3.276928418416076,102.92166789001301,0.24069456855199461,-0.1017728366398927,2.04616216208835,0.9806487330550596,0.012995333876058541,-0.002675815181842769,0.19531729888876265
0.91,-0.006405082746149204,2.70491851158389,1033.1660554159548,-0.04632056221699864,5.066256193573628,81.04000241916373,-0.198462924127274,-3.589975313922326,103.03324173177177,0.22501993456584096,-0.10097452545767485,2.116585788236615,0.9785458751349991,0.014208091281315354,-0.0030810371075908672,0.20550791629703064
0.92,-0.006878176112764445,2.75539726321249,1033.9816089359208,-0.04828634314400861,5.028865698739715,82.07088268287475,-0.19457166855033659,-3.885666636721481,103.14370713277403,0.2084130630856784,-0.09925373318643592,2.188118505389705,0.9762599779391624,0.015337918186894107,-0.0035013326565977174,0.21602218469990914
0.93,-0.007370737751419495,2.8054872127229897,1034.8074767725766,-0.050207057786766526,4.98860857342472,83.1028635323488,-0.18946389562964563,-4.162536087056646,103.25275987760858,0.1909611998454315,-0.09653501380445792,2.2607491519039953,0.9737794727657504,0.01637898845880597,-0.003934411970718214,0.226862091820243
0.9400000000000001,-0.007882241079426304,2.855160951202807,1035.6436699811015,-0.05207041785287438,4.945680840416422,84.13594594380287,-0.1831111931208526,-4.419217156482706,103.36159198853191,0.17277298516938777,-0.09275218841449902,2.3344669195354366,0.9710919474857732,0.01732601354502143,-0.004377453371904785,0.2380289422063563
0.9500000000000001,-0.008412002807795853,2.9043935376558507,1036.4901996012884,-0.05386375020216302,4.900296103645148,85.17013758481518,-0.17549707775252435,-4.65442452401333,103.4726127854971,0.15397446543044063,-0.08784661759618193,2.4092612875561294,0.9681843037811422,0.018174142255365282,-0.004827202508106056,0.24952348459462656
0.96,-0.008959320371867627,2.953160372446124,1037.347076669934,-0.055574369813629815,4.852669990253514,86.20544515275726,-0.16660669392243596,-4.866869075653567,103.58785069366793,0.1346936143704251,-0.08176116347780094,2.485121620737249,0.9650433575766239,0.018918596431605643,-0.005280356601567973,0.26134638933574655
0.97,-0.009523285124079912,3.0014406303757184,1038.2143121881702,-0.05718958176533975,4.803039297930305,87.2418590487126,-0.15644311764904342,-5.0551756293193115,103.70350911264082,0.11507830613909684,-0.07445663828658569,2.5620355646477195,0.9616550034703798,0.01955544225892293,-0.005733110978456543,0.27349745564087363
0.98,-0.01010283676549332,3.049216263763601,1039.091917130882,-0.05869668384950316,4.75165640325257,88.2793576817239,-0.1450226203928501,-5.217905667520088,103.81150494785402,0.09529105911074179,-0.06590706328950963,2.6399894997374798,0.9580044580788071,0.02008136725420889,-0.006181291631861044,0.2859758416708401
0.99,-0.010696894046063448,3.096469673598666,1039.9799022905827,-0.060083025584064476,4.698775956278699,89.31790561896317,-0.1323635584517981,-5.353635766314345,103.90370919223415,0.07549601140660697,-0.05608909787850448,2.718969757267977,0.9540768403827639,0.0204931710286147,-0.006620682421411833,0.2987805963713001
1.0,-0.011304164426601362,3.1431879178088447,1040.8782762568615,-0.061336585439328066,4.6446757814785125,90.3573030385861,-0.11850584626799858,-5.461143237496678,103.97264144368717,0.055872815208052616,-0.04500766148553594,2.7989624280079024,0.9498562766423984,0.02078883707632153,-0.007046660388748311,0.3119096252421426
1.01,-0.011923214841561124,3.189361151606972,1041.7870461541636,-0.062445760195701555,4.589649116397694,91.39724078521085,-0.10350373639577674,-5.539338900249314,104.01125268098862,0.036611440947075594,-0.032686469020603376,2.879953442776551,0.9453262328689601,0.02096713628061042,-0.007454332004817005,0.3253600732885886
1.02,-0.012552593991116238,3.2349800491239673,1042.7062185303096,-0.06339909688143776,4.533990021137022,92.43741235430437,-0.08741505593914592,-5.587238650266982,104.01407453938785,0.017902393202440036,-0.019152883377679383,2.9619285088695753,0.9404700785305043,0.021026983922796384,-0.007838784533509892,0.3391289466576712
1.03,-0.013190684752174423,3.2800401756905173,1043.6357941207257,-0.06418665005239857,4.477998304226116,93.47756011592442,-0.07033266045682461,-5.604943035215736,103.99225596767074,-6.0149612377650985e-05,-0.004469220967799007,3.0448710025825596,0.9352702891361595,0.020968670562869367,-0.00819495395947837,0.35321192961296943
1.04,-0.013835769831038597,3.3245400567042447,1044.5757701699195,-0.06479938735537374,4.4219771654046385,94.51745710201496,-0.05237052848562778,-5.59320130372401,103.9668340175601,-0.01707984199309887,0.011281030151099866,3.128762901556094,0.9297087993400449,0.02079331983819242,-0.008517685921330054,0.36760390535964454
1.05,-0.014486072465056503,3.368480500554303,1045.5261438239909,-0.06522905488069922,4.366223886091731,95.55700553597725,-0.033651566408476,-5.552512138021578,103.95007379313904,-0.03296414437486975,0.027996261132666102,3.2135862756350675,0.9237671415535031,0.02050277417703095,-0.008801873761419297,0.38229903429222034
1.06,-0.01513970965970314,3.411866415887043,1046.4869121360705,-0.06546879920139043,4.311024842795697,96.59634307777691,-0.014314477235630722,-5.482899953143128,103.9379563897886,-0.04752752955511072,0.04554226029208018,3.2993233980782217,0.9174261262402273,0.020100169420557187,-0.009042500288987326,0.39729017524553356
1.07,-0.01579477439869325,3.4547038587585215,1047.4580724592918,-0.06551235182344689,4.2566650373283625,97.63561037323596,0.005496452721370197,-5.384422455870927,103.92545830338486,-0.06058869364046856,0.06377535912358848,3.385956646036666,0.9106663745764308,0.019589022888688294,-0.009234619155665603,0.41256977829938
1.08,-0.01644927978422399,3.497003354389419,1048.4396240971143,-0.06535618545126369,4.2034281383953,98.67480886432938,0.02561240172113685,-5.25766512561664,103.9121617078577,-0.071988204498805,0.08251425551852351,3.473468913957744,0.9034678010171885,0.018974384601279568,-0.009373669790054382,0.42812859464931663
1.09,-0.017101207909494934,3.538777249119735,1049.431567086778,-0.06499789907591345,4.1515969385926965,99.71388693354584,0.04585466516889401,-5.103424034522745,103.89940978937427,-0.08157586782758046,0.10156239384326946,3.5618432645789477,0.8958100349797,0.018261929021515837,-0.009455255953119168,0.443956677837196
1.1,-0.017748540379461514,3.5800407500993976,1050.4339007115793,-0.06443715154591928,4.101442440583905,100.75282423325899,0.06603261018375706,-4.922686339351785,103.88769163656146,-0.08922618069630221,0.12070180984214948,3.651061695474072,0.8876723501051509,0.017458308129420605,-0.00947546272411269,0.4600428170547109
1.11,-0.01838925829440129,3.620812498453799,1051.4466233466012,-0.06367607475172848,4.053221477403599,101.79163814408172,0.08594129182713396,-4.716668329653569,103.8764650122544,-0.09484329566275077,0.13968884571246623,3.741104923403536,0.879033593133956,0.016571347262350655,-0.00943095330971925,0.4763742835456108
1.12,-0.019021362844208432,3.6611123272336403,1052.4697334333446,-0.06271781948374329,4.007184036550523,102.83034388178937,0.10537198777548899,-4.486683254451471,103.86520701333502,-0.09834670832167677,0.15827268045709905,3.831953600261733,0.8698724976858679,0.01560928269807671,-0.009318703973763017,0.4929377131412674
1.1300000000000001,-0.019642933715605795,3.7009639255242246,1053.5032298825158,-0.061568939771497945,3.963556674988119,103.86893948933759,0.12410454857495207,-4.2343696532404875,103.85370871772,-0.09970891606957895,0.17618048870937958,3.923588421122843,0.8601674547812602,0.014581682606578378,-0.00913677865695982,0.5097176137032452
1.1400000000000001,-0.02025207795747087,3.740392084254442,1054.547111708637,-0.060237006106050726,3.9225586160663575,104.9074188054476,0.1419159376111181,-3.9614636956773523,103.84183309956296,-0.09891861287663849,0.1931338584008501,4.015990175938233,0.849896768284944,0.013498490978586242,-0.008883577931067414,0.526697856220019
1.1500000000000001,-0.020847032177335294,3.7794241405854425,1055.6013777592307,-0.05873252965694551,3.884383549938957,105.94577540505817,0.15858153102252787,-3.669990100866243,103.82936959613374,-0.09601606282979443,0.2088508937431965,4.109140983917214,0.8390386850981842,0.012370456253675768,-0.008558627687153958,0.5438604524161688
1.16,-0.02142613646270415,3.818089462374497,1056.6660267486525,-0.05706836783917707,3.849204784732403,106.98400264787831,0.17387545216077835,-3.362203662121351,103.81604914437733,-0.09108268558249306,0.22304694624389887,4.20302401866077,0.8275714070119667,0.011208968233777565,-0.008162352016732217,0.5611859303003123
1.17,-0.02198783271873239,3.8564183839742254,1057.74105733457,-0.05525882669834987,3.8171795608000254,108.02209212394212,0.18757572299631103,-3.0404506213760696,103.80162549868945,-0.08422871222665296,0.23544487067695918,4.29762098760786,0.8154732241779522,0.01002565000695548,-0.007695851372275632,0.5786538034992146
1.18,-0.022530806051260153,3.8944434768269707,1058.826468044399,-0.0533216128865306,3.7884270153866204,109.0600310883166,0.1994700332200511,-2.7072863054058236,103.78591248393103,-0.0756323831409006,0.2457861515601932,4.392909922675846,0.8027226470024882,0.008832654326998951,-0.007161827385466477,0.5962411935626499
1.19,-0.0230538126243721,3.932197783619293,1059.9222573599388,-0.051275272891916635,3.7630559283118026,110.0978059314267,0.2093498653421408,-2.365325309160175,103.7687382987475,-0.06548912124627151,0.25381984069622343,4.488868722092643,0.7892982800538196,0.007642210070822521,-0.006563408483517951,0.613924587866935
1.2,-0.023555913329225096,3.9697155330645186,1061.0284235327636,-0.04914125098355717,3.741134212360456,111.13540117562899,0.21702739848626182,-2.0174280533688442,103.7499782374423,-0.05405572949394241,0.25933716421264885,4.585479014558113,0.7751792681488319,0.006466512620872941,-0.0059053655295663405,0.6316780505432472
1.21,-0.02403633174977981,4.00703157520663,1062.1449646917438,-0.046942526763724964,3.7227079986294784,112.17280035821605,0.22232593792804708,-1.6665838546815421,103.72953263971782,-0.0416215415375969,0.2621520216860765,4.6827243362215905,0.7603450465807475,0.005317733846556847,-0.005193342853548647,0.6494743557289202
1.22,-0.024494512372709294,4.044180851847209,1063.2718788125974,-0.04470341910486709,3.7077961896529663,113.20998645656422,0.22508872257177098,-1.315808399102574,103.70732960006613,-0.028504884543026562,0.26211901238047536,4.780585484143007,0.7447755740599171,0.00420765749970916,-0.004433954133320384,0.6672847644497881
1.23,-0.024930249273622,4.081198442304305,1064.4091636288103,-0.04245035870964419,3.696374621494903,114.24694156991322,0.2251905866196897,-0.9681575822502628,103.68334107226494,-0.01506981396788009,0.25915724618239,4.879038866110823,0.7284516389491392,0.0031474494728088156,-0.0036353448685016287,0.6850781456014837
1.24,-0.025343450095827905,4.1181192438042205,1065.5568167998651,-0.040210225193909876,3.6884061506761734,115.28364785090004,0.22251812421034606,-0.6267023954366981,103.65756222699876,-0.0016891014902798308,0.2532092589875068,4.978061423045328,0.7113543598262223,0.0021479597070098687,-0.00280607623430245,0.7028226301953879
1.25,-0.025734465423943184,4.154977108483127,1066.7148357035433,-0.038011298836783065,3.6838045035223423,116.32008816057277,0.2170060051617833,-0.29457570940372046,103.63009203156746,0.011239552124628216,0.2443126000515073,5.077635068321638,0.6934662328194015,0.0012186356804743822,-0.001956209611741317,0.7204835292445491
1.26,-0.026103807071742594,4.191805476073868,1067.8832176165197,-0.03588233068146082,3.682465592646033,117.356245666717,0.2086066243816651,0.025074194354992668,103.60106412381253,0.023310460901848146,0.232539654955122,5.17774322646342,0.6747702657184637,0.00036839757942817543,-0.0010963378232477668,0.7380251293460609
1.27,-0.026452314943882217,4.228636204912539,1069.0619596429558,-0.03385212335484849,3.6842506934720802,118.39210529516605,0.1973136819335639,0.32923268225462454,103.57061052442634,0.03412694917736177,0.2180395395941744,5.278365465458695,0.6552507450029491,-0.00039529713565869,-0.0002377957945939853,0.7554096801255854
1.28,-0.026781173934369934,4.2654994901499474,1070.2510587056302,-0.031949533313005,3.6889846610527948,119.42765382078447,0.18316431284309878,0.6150257147742734,103.53886153137537,0.04330182741343499,0.20104205432446431,5.379477296161169,0.6348933018203754,-0.001066529244234172,0.0006073013823085755,0.7725972893332225
1.29,-0.027091719548006113,4.302424438286817,1071.4505116658502,-0.030203005452257382,3.696477721082379,120.46287891513279,0.16621706404952633,0.8796498255467653,103.50597147942754,0.05046570487406102,0.18181198541665375,5.481055828401901,0.6136843303817635,-0.001640231984886123,0.0014266924044981741,0.7895470922787327
1.3,-0.027385736838485546,4.339436774154808,1072.6603152079033,-0.028639597564436764,3.706496896352075,121.49777095889402,0.146595286982898,1.120515550881156,103.4721754897637,0.05530729821850119,0.160718459570447,5.583084173799317,0.591612566715884,-0.002113949028354328,0.002207750443740748,0.8062153080660353
1.31,-0.02766513076013173,4.376561232064419,1073.8804659723783,-0.02728587778787206,3.718797806530446,122.53232114906761,0.12444018192849775,1.3351069027623874,103.43772162440354,0.057534224737681494,0.13815772695635656,5.685546321004794,0.5686674231175813,-0.002485960448009138,0.0029378044059519895,0.8225573586929426
1.32,-0.02793214065870313,4.413818886547115,1075.110960513591,-0.026165836240240322,3.733105481160796,123.5665239089838,0.09994844736639373,1.5212789139168308,103.40280686351393,0.056941280048377556,0.11459453628297878,5.788421373804851,0.5448407213293825,-0.0027570069274287694,0.003604598872799958,0.838526247451396
1.33,-0.028189239434935596,4.451228251471422,1076.3517953257506,-0.02530165705170514,3.749123593771166,124.60037591364043,0.07335556847506898,1.6771461465417823,103.36759262771068,0.053384302629993496,0.09054140967102746,5.8916850534382945,0.5201259693006308,-0.0029295494917948714,0.00419617155765213,0.8540732869011156
1.34,-0.028439039441294143,4.488805537401713,1077.6029668931626,-0.024713520778658103,3.766544717845073,125.63387488014071,0.04492433888531632,1.8010454070255204,103.33223949878564,0.04678197822578429,0.06652747326308119,5.995316101398255,0.49451825562246104,-0.003007374817382277,0.004701217894598701,0.8691485404011894
1.35,-0.028684439830032774,4.526562161857166,1078.8644716816439,-0.02441742045162616,3.7850387176912075,126.66702064693798,0.014974015607889066,1.8917754414607924,103.29690780852248,0.037184155387824894,0.043115139153604806,6.09929983526717,0.4680159611803705,-0.0029970175358251566,0.005109820917810163,0.8836994848364126
1.36,-0.028928398795197888,4.564508231550044,1080.1363061574878,-0.02442803110739401,3.804271114594321,127.69981354101377,-0.016163017185451073,1.9482730669983168,103.26174498214968,0.024677138983590932,0.0208677873396547,6.203621647906981,0.4406184091804448,-0.0029056874558546853,0.005412546747087119,0.8976729477382566
1.37,-0.02917404163044184,4.60264863082159,1081.4184668083215,-0.02475416976548795,3.8238966876065867,128.7322555138145,-0.0481102066636354,1.9700664296993948,103.22680192201001,0.009494536972820551,0.00032407421903467293,6.308261178452322,0.41232882445957364,-0.0027430161724628917,0.005602250128764138,0.9110133733117882
1.3800000000000001,-0.029424569584650763,4.640985800266585,1082.7109501319237,-0.025401900395210855,3.84356540083454,129.76434923666454,-0.08047067870837683,1.956960847145093,103.19208422978927,-0.008061311711736078,-0.017989841529529094,6.413195562450558,0.38315226631961047,-0.002519758356702188,0.005672866970318115,0.9236640960606524
1.3900000000000001,-0.029683189789404516,4.679518815106766,1084.01375264751,-0.026372972242251807,3.862929932025792,130.7960965951449,-0.11283488283949039,1.909163912094294,103.1575292122608,-0.02760214305212716,-0.03360599054370465,6.518406819239411,0.35309670619840366,-0.0022477665166415217,0.005620273327681895,0.935567167098088
1.4000000000000001,-0.02995311702873013,4.718242088300488,1085.3268709040321,-0.027663154457519226,3.8816467653718707,131.82749837734553,-0.14477578432064475,1.8274406180795917,103.12297953318557,-0.048620699549612297,-0.04613722318614377,6.623883775943318,0.3221741518426483,-0.0019404118026999997,0.005443035339517723,0.9466628608088201
1.41,-0.030237537022232582,4.757148530476736,1086.650301453334,-0.029266713151616282,3.89937744597384,132.8585552322561,-0.17586197756338606,1.7127464086205875,103.08833722892011,-0.07057994953806965,-0.055238564196609344,6.729613956133111,0.29039810718874437,-0.001611330471833554,0.0051407650807003685,0.9568909719889808
1.42,-0.030539498997596278,4.796225718046795,1087.984040850471,-0.031173025354947165,3.915805537298255,133.88926754152584,-0.20564787151653305,1.5667243892077494,103.05381004514282,-0.0928461931537187,-0.060731818482040456,6.8355765619799325,0.25778759509852334,-0.0012748632782570695,0.004716977489726972,0.9661896907230121
1.43,-0.030862001864928088,4.835459521672957,1089.3280856489464,-0.03336971921659883,3.9306223382399508,134.91963532733214,-0.23368484069624285,1.3912402331726,103.01963676460302,-0.1147573421474481,-0.06249443353429149,6.941748800823609,0.22436346215431272,-0.0009455288548532904,0.004176452454504628,0.9744967116419128
1.44,-0.03120782477632067,4.8748324130309175,1090.682432352973,-0.03583761561820174,3.9435470021440193,135.94965298784098,-0.25954511254275636,1.188650957538588,102.9849228779617,-0.13563994500373763,-0.06055612010586407,7.048115837238061,0.19015124416460455,-0.0006373512031766049,0.0035267934108264105,0.9817490590305773
1.45,-0.031579544421877805,4.914323733755153,1092.0470774213566,-0.03855126733386532,3.9543243411994244,136.97930974780812,-0.2828201304680269,0.9617660390679761,102.9477324600564,-0.15481011939121908,-0.05508682375764633,7.154670157211297,0.15518079582994232,-0.00036389828892330545,0.0027782041217625964,0.9878831401173115
1.46,-0.0319795639091297,4.953911508787885,1093.4220172786834,-0.041483271214065774,3.962717916900049,138.0085985312815,-0.3031214777961429,0.7135768842653185,102.9079729121115,-0.1716114118160713,-0.04633336595285599,7.261400544387467,0.11948445408597017,-0.00013803335890421513,0.0019421647904371178,0.9928353403906921
1.47,-0.03240980779575164,4.993570304378568,1094.8072482557864,-0.04460126017729454,3.968542573474413,139.03752348033498,-0.3201167208695618,0.44755064711762915,102.87097640146865,-0.18546754545822902,-0.034749074037893964,7.368284324799269,0.08310124617722134,2.936249667048063e-05,0.0010335552116156111,0.9965420489796211
1.48,-0.03287206626247946,5.0332738964014245,1096.2027666348367,-0.04787160924248292,3.9716275054358934,140.06608612159351,-0.3334904944857569,0.1672792947091885,102.84139318220949,-0.19583153911380768,-0.02083745410861935,7.47529761772138,0.046072005563959656,0.0001280341739460331,6.805843849067971e-05,0.998939741185555
1.49,-0.033367607406857444,5.0729942267061405,1097.608568356182,-0.0512567362045981,3.971857319789608,141.0942383875219,-0.3430029703878369,-0.12322030953366259,102.80614188204744,-0.20231661625027378,-0.005243564029445039,7.582425604890092,0.008444087895619068,0.00015063329092464153,-0.0009365567787925017,0.9999658094890407
1.5,-0.03389737900306966,5.112702120894804,1099.0246491367614,-0.05471664663237208,3.9691506209115888,142.12190108938464,-0.3484606996640088,-0.4196727467450684,102.74151483962117,-0.20463451522821266,0.011301251359545652,7.689658962507139,-0.029731153216686866,9.159673358621103e-05,-0.001961250717250912,0.9995582140837372
1.51,-0.03446199757641018,5.152368160648887,1100.4510030808283,-0.0582104393016508,3.963461081220413,143.14889289727932,-0.3497216043484595,-0.7177512331880245,102.63835656063189,-0.20262122282931397,0.028033159295952542,7.79698740456381,-0.06839860526308407,-5.26053179954765e-05,-0.0029865482232633387,0.9976560050579756
1.52,-0.035061475321900744,5.1919625055755665,1101.8876213156486,-0.061695598632653934,3.9548063490103957,144.17484437266242,-0.346737413493302,-1.0130407166831836,102.51470392872257,-0.19633996819806138,0.04413048549023513,7.904398722220949,-0.10749630745860575,-0.00028178842904748997,-0.003992201884426519,0.9942002335699973
1.53,-0.03569565143838113,5.2314554607060115,1103.3344940027443,-0.06512951519899103,3.943222085672253,145.19941979861832,-0.3394854322203106,-1.3011441069925418,102.38914825724409,-0.1859219706030326,0.058775402497464026,8.011879369038173,-0.14696030403490717,-0.0005946637436198457,-0.00495803258268898,0.9891327163054485
1.54,-0.036363678856102984,5.2708185496310085,1104.7916071989177,-0.06847009486185965,3.9288146850897645,146.2226282778333,-0.3280413466848304,-1.5778397538821647,102.2650563725855,-0.17177524761366098,0.07121451923099598,8.119408595250748,-0.18671864184636114,-0.0009854619797722286,-0.005864829496643793,0.9823987711790525
1.55,-0.037064431394928994,5.310023825126542,1106.2589454338106,-0.07167550322636757,3.911719319462238,147.24461072653312,-0.31252119043682686,-1.838981425767569,102.1398725393912,-0.1544201346138866,0.08072347015596325,8.226963038431837,-0.2266961006912088,-0.0014465891578919917,-0.006693815619303689,0.9739451724171999
1.56,-0.03779645992724894,5.349045044619755,1107.7364960855343,-0.07470583931826588,3.892104780015441,148.26538681636458,-0.29309874869575636,-2.080642463611148,102.01294931353672,-0.1344983391562327,0.08670313231366376,8.33452661058467,-0.26681321235556005,-0.001968262692520542,-0.0074280167523923,0.9637214303968419
1.57,-0.03855779435015201,5.387858526667074,1109.2242485212605,-0.07752423024895656,3.8701885220024193,149.2848776704299,-0.27006665273740516,-2.2992401194531946,101.88542866616203,-0.11281711702310353,0.08873811340899318,8.442091311207383,-0.3069841619083845,-0.0025377072676228012,-0.008053133165697602,0.9516812002934791
1.58,-0.039346108721924095,5.4264423491780045,1110.7221894421539,-0.08009623898814765,3.8462149674284922,150.30309258756625,-0.24382837250830908,-2.4914621187329797,101.75749820444085,-0.09024861746629599,0.08653412008303968,8.549644222993445,-0.3471191838344968,-0.003140831293451754,-0.00855668344446867,0.9377809931072368
1.59,-0.040158788778070414,5.464777309466427,1112.2303061000018,-0.08239145076988627,3.820462992336591,151.32002769085514,-0.2148198084537543,-2.654413081430983,101.62942140887999,-0.06773534391900315,0.07999842757456822,8.657160096891387,-0.3871234564036442,-0.003761675579560032,-0.008929171471144859,0.9219814911113443
1.6,-0.04099293038431254,5.502847201643373,1113.7485857187185,-0.08438461254201192,3.7932383818364537,152.33568144253968,-0.18353362162256362,-2.785666688130066,101.50134557185307,-0.04623486494939089,0.06924390237336102,8.764627664921038,-0.426897352592567,-0.0043831436311326764,-0.00916430905663243,0.9042478710545433
1.61,-0.041845407900788986,5.540638960406096,1115.2770154684943,-0.08605567000820023,3.7648682317197846,153.3500553042672,-0.1505262440025454,-2.883301848228293,101.37340549104172,-0.026673674673696905,0.05458681912928886,8.872040025296853,-0.46633676830251103,-0.004987554274681738,-0.009259160316371999,0.8845500467504315
1.62,-0.04271293540561115,5.578142701295422,1116.8155825692686,-0.08739004921244081,3.7356952675173885,154.36315123373652,-0.11639842170332336,-2.945921023815493,101.24580135731512,-0.009907579166108873,0.0365331548710975,8.979382305073868,-0.5053334285725717,-0.005557141950713872,-0.00921411851549306,0.8628628698448585
1.6300000000000001,-0.04359209110654736,5.615352155040132,1118.3642742577447,-0.08837982607089051,3.7060740333661424,155.3749734531034,-0.08177905560803092,-2.972731991834032,101.11871059833007,0.0033253778596043938,0.015782491932892172,9.086632125030947,-0.5437746007527304,-0.006074563728710299,-0.009033248223998282,0.8391670068428929
1.6400000000000001,-0.04447941344185186,5.652264675518001,1119.9230778202975,-0.08902345885575615,3.6763638957843527,156.3855267870675,-0.047315920320528886,-2.963564111522159,100.9920371924706,0.012453435911595031,-0.00680708347930779,9.193781542482776,-0.5815434906092838,-0.006523588029692383,-0.008724164642511955,0.8134492884229712
1.6500000000000001,-0.045371461690389615,5.688881164448557,1121.4919805888126,-0.08932579236065079,3.6469226686147054,157.39481538525143,-0.013661739195746063,-2.9188734714868674,100.86573343682349,0.017101968111093418,-0.030260776928968034,9.300825680884797,-0.6185196272260867,-0.006889642415051773,-0.008297747826036383,0.7857029712560433
1.6600000000000001,-0.046264872321474554,5.725206025577276,1123.0709699348415,-0.08929809489095268,3.618100770270464,158.40284289943313,0.018537635461932885,-2.839745782498605,100.73983426909025,0.017117680123572673,-0.05352926600363733,9.407752415959457,-0.6545791312698116,-0.007160308481916657,-0.007767861904035141,0.7559281351817616
1.67,-0.04715642577646492,5.761247132877789,1124.6600332652356,-0.0889580764813227,3.5902346698830665,159.40961301184237,0.048655862942485584,-2.727898532971043,100.61425869360396,0.01259167977941349,-0.07553918760934214,9.514540629069334,-0.6895949589832081,-0.007325871045075032,-0.007151024703008654,0.7241322709553479
1.68,-0.04804311575256458,5.797015678064917,1126.2591580155913,-0.0883296474168534,3.5636401309398464,160.41512741441215,0.07610206143096557,-2.5856635894760034,100.488668205787,0.0038668574439968467,-0.09525442616098351,9.621184306161371,-0.7234372838862184,-0.007379801411967678,-0.006465890703083867,0.6903308172049545
1.69,-0.048922202905716625,5.832525841136559,1127.868331625445,-0.0874423274273952,3.538606769522779,161.4193852178703,0.10033233307186791,-2.4159442288622874,100.36286463116369,-0.008479874622349148,-0.11173415954540068,9.727680253405826,-0.7559740394002078,-0.007318994911150303,-0.0057325870643208125,0.6545473388917187
1.7,-0.049791261800901855,5.867794514124929,1129.4875415182628,-0.08633071056117715,3.5153932066974494,162.42238365725493,0.12086444027723675,-2.2221722719225925,100.23680073779744,-0.023659521314325978,-0.12418287595941267,9.834019112660949,-0.7870713614025928,-0.007143949401495169,-0.004972116709633651,0.6168138298237787
1.71,-0.05064823718524757,5.9028410296314044,1131.116775083452,-0.0850339218715367,3.494221230236902,163.42411914769525,0.13729277316598934,-2.00825862186943,100.1102517290973,-0.040701202341292694,-0.1320054090312337,9.940186006914884,-0.8165940409359531,-0.0068589598928847735,-0.004205678934772542,0.5771713103780138
1.72,-0.05149150907683381,5.937686793643345,1132.7560196559527,-0.08359498354477966,3.475269081615693,164.42458495532924,0.14927613855899946,-1.7785274070271615,99.98282919205704,-0.0585045693284249,-0.13486369052762576,10.046177527900978,-0.8444061450685748,-0.006472214199102488,-0.0034537960717487557,0.5356706233998392
1.73,-0.052319846654037674,5.972354621792657,1134.4052625014583,-0.08205911259021337,3.4586752009257014,165.42377187279632,0.15662074368741544,-1.537612484864133,99.85437255877503,-0.07590834360316212,-0.13266102960875553,10.151982808818152,-0.8703716154960941,-0.005995057208640548,-0.002735854428695717,0.4923711410404858
1.74,-0.053132468603496144,6.006868440100425,1136.0644907894248,-0.08047302334778825,3.444531622728137,166.42166940449297,0.15926265683068258,-1.2903978890217611,99.72493502132681,-0.09174788387230293,-0.12557914188932387,10.257583605801749,-0.8943548692161574,-0.005441987800130932,-0.0020693545834423845,0.447341882022967
1.75,-0.05392917838929428,6.041253213756181,1137.7336915621536,-0.0788851375051312,3.43287045857814,167.4182668800364,0.15714467397182422,-1.0419727083516526,99.59435328324258,-0.10490705285485831,-0.11414812089196608,10.362976958942596,-0.916221429903555,-0.004831113768038664,-0.0014689404702125735,0.4006642782458657
1.76,-0.05471024996319803,6.075533782194817,1139.4128517534973,-0.07734457202623404,3.4236770599792066,168.41355228201635,0.15033366144150187,-0.79739364854133,99.46248929390833,-0.11443044877402968,-0.09913590812120596,10.468163878988419,-0.9358389377650939,-0.004182254448506052,-0.0009459463323388224,0.3524293634716019
1.77,-0.055476378954659775,6.109734537567724,1141.101958188336,-0.07589878257260292,3.4168917561253553,169.4075125976935,0.13901814670945956,-0.5616452388699602,99.32931336135638,-0.1195587459013281,-0.08151418580138689,10.573141367035513,-0.9530775584707571,-0.0035164976777221284,-0.0005082635034366388,0.3027373910568425
1.78,-0.05622869252993801,6.143879013252176,1142.8009975475768,-0.07458694723925785,3.4123981017913256,170.40013539913627,0.12345721662790785,-0.3396324132936729,99.19501908778989,-0.11981363667755099,-0.06246017320322009,10.677885541497123,-0.967811193562868,-0.0028561829683806748,-0.00015946104522959802,0.25170025990650274
1.79,-0.056968708685282046,6.1779893836575885,1144.5099564043708,-0.07344804589233105,3.4100364398956025,171.3914099245549,0.10401663690007601,-0.13593764683104514,99.0597618349473,-0.11500265140728318,-0.04323111278827464,10.78238150783222,-0.9799178007413493,-0.002223221273318162,0.00010074713672971391,0.19943986552166973
1.8,-0.0576983561591355,6.212086029488342,1146.2288212294188,-0.07252196420365707,3.4096044512094625,172.38132738282093,0.08118174023484404,0.045306564439389185,98.9235973022184,-0.10525550653757436,-0.02510980037524152,10.88663069812619,-0.9892802299113334,-0.0016383188140185881,0.0002767399746056052,0.14608866635613865
1.81,-0.05841995102813981,6.246186883451311,1147.9575784036358,-0.07183877815710649,3.410855670516646,173.36987961600332,0.05549249202955773,0.20044806840648777,98.7867040614593,-0.09106197533167854,-0.00931567062244797,10.990624414224275,-0.9957880206649009,-0.0011203562136955988,0.00037717609131284136,0.09179080043185887
1.82,-0.059136034040521125,6.280307633361606,1149.6962142448385,-0.07142271327179783,3.413514455215503,174.35705963335386,0.02754483307076326,0.326313965434477,98.6492039235789,-0.07317082019901781,0.00305712922586552,11.094360261965573,-0.9993365562936738,-0.0006859622886228344,0.0004137345508525408,0.03669918736712037
1.83,-0.059849372396245666,6.314460697216837,1151.4447149972543,-0.07129380366141909,3.417274984904016,175.34286083988673,-0.0019806040719435314,0.42050024233339794,98.51089180708153,-0.05261820519797953,0.011173737021312637,11.197854884508946,-0.9998296908894625,-0.0003477865810842214,0.00040136341107546936,-0.01902224378147544
1.84,-0.06056291406655663,6.3486555293883375,1153.2030668369914,-0.07146526935987159,3.4218116147427025,176.32727590471114,-0.03235994083685211,0.48127129466129637,98.37205310928883,-0.030625355997982464,0.014466369054104977,11.301083636976653,-0.9971794373255852,-0.00011480680584666133,0.00035710590495743725,-0.07520008473132073
1.85,-0.06127969279378186,6.382898138295044,1154.9712558797798,-0.07194171876476808,3.4267846671989592,177.31030099455214,-0.06284833533792619,0.5076668436129491,98.23291214322927,-0.008535674216200214,0.012710224653988163,11.404029651606766,-0.9913076006211039,8.461720383318332e-06,0.0002995431646397954,-0.13165097655209435
1.86,-0.062002750830267614,6.417191199615295,1156.7492682111588,-0.072720825008614,3.4318489629442834,178.29193314362456,-0.0926989889856647,0.49950926087287306,98.09346675610483,0.012284906930352547,0.006031246981133651,11.506691148166096,-0.9821461045786133,2.2038675126879635e-05,0.00024780584439014394,-0.18818270289784883
1.87,-0.06273507252782523,6.451533944768729,1158.5370898868944,-0.07379248074239242,3.436661565742268,179.2721693266522,-0.12118752252186846,0.4574228816734377,97.95371932472071,0.03053861927668135,-0.005085060229685142,11.60906314728201,-0.969638159782962,-6.938857109454308e-05,0.00022072087598748062,-0.24459441089292036
1.8800000000000001,-0.06347950090146635,6.485922138230714,1160.3347069305578,-0.07513927830017585,3.4408900870045396,180.25100626518366,-0.14762444348452036,0.3828584386155047,97.81361022365367,0.04509823282278975,-0.01981108866215393,11.711140898180902,-0.953739481836557,-0.00025646159055420654,0.0002358098693844067,-0.30067700302940925
1.8900000000000001,-0.06423869178571764,6.520348581929732,1162.142105332163,-0.07673836730055271,3.444218806659872,181.22843982300216,-0.17140553704119088,0.27798864858327454,97.67301531655828,0.05507113608529998,-0.037060804618844416,11.812927335473752,-0.9344177315361664,-0.0005259361504272182,0.00030859327528521023,-0.3562146724647402
1.9000000000000001,-0.0650150174340591,6.554802670131794,1163.959271027357,-0.07856028345505327,3.44636011635869,182.20446397241648,-0.19199932359577124,0.14581023039932375,97.53169055459117,0.059920431357579185,-0.05550759107892037,11.914435958029992,-0.9116560218262248,-0.0008603989310742325,0.0004513568974895257,-0.41098414485274465
1.9100000000000001,-0.06581053091329284,6.589271143643132,1165.7861898853412,-0.08056925031532951,3.447058763340948,183.17907100067774,-0.20893324163305738,-0.010044526022527561,97.3895206060047,0.05947333022354548,-0.07371811272927238,12.015660493973149,-0.8854518835522069,-0.001239656034241176,0.0006727505135794197,-0.4647565117610104
1.92,-0.06662690552352221,6.623738480304721,1167.6228476940043,-0.08272484404215771,3.4460984749354275,184.15225233789113,-0.22182859302009625,-0.18537885207099264,97.24662600739559,0.05395663126919825,-0.09026426883024874,12.116567399634302,-0.85581803295664,-0.0016416132288011767,0.0009771018126861378,-0.5172982504011827
1.93,-0.06746540325510843,6.658187151204612,1169.469230156676,-0.08498861101948572,3.44330713963995,185.12400067624523,-0.23045976648005814,-0.37540851433441763,97.10292402392376,0.04400436191740881,-0.1038237523388299,12.217161711655711,-0.8227838090884674,-0.0020427966263094456,0.0013639529404098568,-0.5683719128210812
1.94,-0.06832689801000658,6.69259822021799,1171.3253229015954,-0.08731775658238512,3.438562635056218,186.09430772529342,-0.23469576804916986,-0.5750407036997109,96.95831951818077,0.030587870855890945,-0.11329834816982033,12.31744631918065,-0.7863952513307657,-0.0024200490660323737,0.0018281688450700224,-0.6177374105143693
1.95,-0.06921183197671085,6.726951783988447,1173.191111473823,-0.08966653073683431,3.431795557946417,187.06316424140232,-0.23450594472520894,-0.7789803148445673,96.8128131639624,0.014955388904587162,-0.11789882616514562,12.41741433487109,-0.7467159003999164,-0.0027514824001157756,0.0023600167555265558,-0.66515309758042
1.96,-0.07012015519593681,6.761227422433899,1175.0665813201538,-0.09199189493601644,3.422990390714429,188.03056136742762,-0.2299989884276507,-0.9817684346858673,96.66646446888589,-0.001441519380433482,-0.11721962693353638,12.51706420772574,-0.7038279275342291,-0.0030172067876919695,0.0029453180779829774,-0.7103769542968594
1.97,-0.07105144084794364,6.7954049535671786,1176.9517178024935,-0.09425221261307092,3.412185130383055,188.99648991984813,-0.22139364642332507,-1.1780233223994816,96.51906770118504,-0.017108488958612625,-0.11128041923342079,12.616407318340345,-0.6578314286052198,-0.0032007401443030826,0.003566382210335751,-0.7531682682550063
1.98,-0.07200483838038596,6.829464804718199,1178.8465061876307,-0.09640737001489072,3.39947175769703,189.96094049935684,-0.20903009883967116,-1.362573553728554,96.37095858337125,-0.030603672212833,-0.10052977577892401,12.715446762109519,-0.6088454065235629,-0.003289630249918527,0.004202671247618423,-0.7932887382609517
1.99,-0.07297911122195029,6.863388574832318,1180.7509316571427,-0.09842194348260844,3.3849920846335078,190.92390552254656,-0.19336313853654274,-1.53055978755425,96.22184909866206,-0.04066341142000425,-0.08581903529601842,12.814165248310752,-0.557008219089878,-0.0032760090272709957,0.0048317525649212295,-0.8305039917921928
2.0,-0.07397269937636462,6.897159508385151,1182.6649792937735,-0.10026549699767277,3.368934187454852,191.885371154754,-0.17493950309577921,-1.677586064212857,96.07065351541095,-0.04631470328322977,-0.068332536080626,12.912559846642884,-0.5024773190489223,-0.0031570305649382476,0.00543041659134584,-0.8645850452912148
2.0100000000000002,-0.07498376585909038,6.93076292482888,1184.5886333638673,-0.10191346925410459,3.3515288427339267,192.84515616726281,-0.15438272485818813,-1.799334348759612,95.8792464494175,-0.04696138647811865,-0.049493391106287414,13.010632255765143,-0.4454292485218668,-0.00293496166240222,0.005975808070132155,-0.8953098447651989
2.02,-0.07601025705280111,6.9641866715701894,1186.521875597191,-0.10334790448366347,3.333043793889184,193.80295700344547,-0.1323638530873637,-1.8931082455034245,95.68042866361536,-0.04245263632817692,-0.03084833938182577,13.108377085638478,-0.3860599538318885,-0.0026171896504049385,0.006446615445038325,-0.9224650306029265
2.0300000000000002,-0.07704998871040458,6.997421259253204,1188.4646859585828,-0.10455696788912908,3.3137690486218925,194.75874023984903,-0.10960079722852009,-1.9566997079188237,95.48267311692248,-0.03307523009422225,-0.013922449040513225,13.205791399274394,-0.3245832297249317,-0.002215509156243796,0.006824096080772165,-0.9458469717622485
2.04,-0.07810066771301213,7.030460429641672,1190.4170442138518,-0.10553643050399064,3.2940150818726646,195.71255080911777,-0.08679413601650342,-1.988722240075725,95.28422780112676,-0.0196004567473669,-0.00010320329928700713,13.302875722244648,-0.2612332090696491,-0.0017461673961947253,0.00709327520689423,-0.9652646340141361
2.05,-0.07915999143662424,7.0633009872893595,1192.3789305790817,-0.10629042515152844,3.274098869596937,196.66439830176444,-0.06467353517406987,-1.9887171595384932,95.08628519709792,-0.0031574346124341414,0.009509330288977295,13.399631052126665,-0.19626157613996598,-0.0012281844895825295,0.00724363279314567,-0.9805404142486775
2.06,-0.0802257371652188,7.095942868515434,1194.3503255638905,-0.10683041610271875,3.2543382211074947,197.61427042971476,-0.043939020546467665,-1.957130958897299,94.88816335334238,0.014838390539892655,0.014192818661617554,13.496054473069513,-0.12993704049652918,-0.00068267372717969,0.007269660920742289,-0.9915115915002447
2.07,-0.08129589102721053,7.128389247640846,1196.3312093830111,-0.10717218392497434,3.235046687873832,198.56216187014059,-0.02509855902061741,-1.8954227721142096,94.69008306214646,0.03279796013953509,0.01370047005452216,13.592131035001685,-0.06254506500149665,-0.00013205516406450656,0.007171478619944979,-0.9980326077103328
2.08,-0.08236856973459065,7.160646284306426,1198.321562208412,-0.10733734534777523,3.2165143543593246,199.50807215049076,-0.008679267083373524,-1.805909604006977,94.49204194779375,0.049149551409015856,0.008276588167061628,13.687856612823003,0.005613222125552549,0.00040210086482564417,0.006954661652529677,-0.9999764786821007
2.09,-0.08344210902290995,7.192722867915963,1200.3213642272026,-0.10735284881370784,3.199002952401036,200.45200180467907,0.004839279484878688,-1.6917314212295638,94.29385488800855,0.06246040217592102,-0.0013715341699041296,13.783235998418213,0.07422222729202853,0.0008999430414493715,0.0066298536885265056,-0.9972359924537778
2.1,-0.08451520535405913,7.224630483422434,1202.3305956312538,-0.10724982511239602,3.182741784139606,201.39394846219906,0.015164520979420193,-1.5568581029362287,94.0954062005188,0.07156979084055516,-0.014097902374006738,13.878277116822602,0.14295243574385647,0.001344157680209519,0.006212546963139111,-0.9897263582696221
2.11,-0.08558681938083174,7.256382540284846,1204.3492365665063,-0.10706069290563501,3.1679164966615456,202.33390676663583,0.022060304459941185,-1.4057330238027699,93.8961334449618,0.07574486500121676,-0.02848186422115098,13.972988081005516,0.2114633446698403,0.0017215353289027065,0.005721745949854625,-0.9773854737370271
2.12,-0.08665625490955745,7.28799409904728,1206.377267112322,-0.10682028687586469,3.1546626453964453,203.27186955342415,0.025382814066888488,-1.2433810055180357,93.69633271589976,0.07473367930985844,-0.04293554780139533,14.067343986067126,0.279403781201602,0.0020235506195383935,0.00517902500604193,-0.9601761191701151
2.13,-0.08772318331271879,7.319481354173839,1208.414667284953,-0.106564476633622,3.1430654946858816,204.20783134341806,0.025138436002888315,-1.075093202328588,93.49592411482175,0.0687934780671607,-0.05586622209593399,14.161347549089617,0.3464138468273643,0.0022465757658862223,0.004607300315455895,-0.9380875478062024
2.14,-0.08878761859610734,7.350861062996921,1210.4614170433686,-0.10632819733392028,3.133157724602945,205.1417856421534,0.021478362819739992,-0.9063191257453431,93.29482154052937,0.05865837876658814,-0.06583497268956477,14.254997498824485,0.41212725549877544,0.002392018678429922,0.0040294903956137,-0.9111354768157235
2.15,-0.08984992599562182,7.382150052575537,1212.5174962772364,-0.1061445582597385,3.124917311582257,206.07372521755002,0.014674241769877916,-0.7424890319899365,93.09296170179846,0.045488256092513064,-0.07170620116797766,14.348293733359665,0.4761730024272574,0.0024662880520943294,0.0034672593279171993,-0.8793642837710427
2.16,-0.09091078128784796,7.4133646709319265,1214.5828847967016,-0.10604334112341245,3.1182689560060597,207.0036410381215,0.005105555830007267,-0.5888627670040034,92.89002089272311,0.03074724720926014,-0.07276525202266337,14.441250850529075,0.5381777136071637,0.0024802724652581588,0.0029397573348834676,-0.8428473021040779
2.17,-0.09197112496522059,7.444520243846122,1216.6575623184551,-0.10604999936460154,3.1130871237048794,207.9315233358613,-0.006736962723424826,-0.45025846701100797,92.68626621011897,0.016043543331883847,-0.06879904781488196,14.53387215815362,0.5977680755429118,0.0024484991007756095,0.0024624933766872227,-0.8016874315151742
2.18,-0.09303216110353439,7.4756306515633675,1218.7415084643542,-0.10618537713744418,3.109198146237888,208.85736436314446,-0.02034394201532933,-0.33104148189486154,92.48182472804278,0.003007306227576431,-0.060139581848170975,14.626130305719528,0.6545726134792035,0.0023884362492175826,0.002046500534755088,-0.756019420382234
2.19,-0.09409529832627235,7.506707762468292,1220.8347027863729,-0.10646483512549018,3.1063911357300156,209.7811579237817,-0.03509005513677342,-0.23479801639235212,92.27680347892324,-0.0069476968424823475,-0.047625998288998064,14.718028227982165,0.7082250673161894,0.002318673631247879,0.0016975467904808187,-0.7060095322003319
2.2,-0.09516200230432117,7.537761182686998,1222.937124779422,-0.10689588711295457,3.104420851847325,210.70289806933482,-0.050409287147988445,-0.16434746484768925,92.07114326359114,-0.012751686992326735,-0.0325107336894282,14.809573905376176,0.7583667652918772,0.0022580676143138124,0.0014160321515694673,-0.6518542613347703
2.21,-0.09623375871762438,7.568797998814019,1225.0487538794312,-0.10747962792349657,3.1030163367388175,211.62257814338432,-0.06579469248364389,-0.12164473781267973,91.86471502532918,-0.01378640010332673,-0.016332730163593236,14.90077134095679,0.8046489942587274,0.0022243888007079334,0.0011971336868166359,-0.5937803923873917
2.22,-0.09731212331518654,7.5998224435069845,1227.169569449615,-0.10821494037452671,3.101896539277023,212.54019058942984,-0.08062880148129527,-0.10754084924740791,91.65766013534994,-0.0099949863986805,-0.00074148514548192,14.991633038182371,0.8467360871185423,0.002232273093400927,0.0010311690042164204,-0.532046507150055
2.23,-0.09839856327706159,7.630835913892556,1229.2995507827093,-0.1090932923691575,3.1007753754003713,213.45572976224156,-0.09438603682467304,-0.12192412641888568,91.45010685447271,-0.0018675693035102216,0.012687785625426481,15.082140795828858,0.8843083470723487,0.0022927146016469145,0.0009045393387502868,-0.4669417928300893
2.24,-0.09949444046827789,7.661837002401631,1231.4386771213797,-0.11010130012854984,3.0993725483916355,214.36919126656363,-0.10661616295533805,-0.16368653877491468,91.24213467377373,0.009621554798631941,0.022630157389142345,15.172283720869332,0.9170643858276538,0.0024121391666001323,0.0008008579250323242,-0.3987846636014191
2.25,-0.10060098556241345,7.69282156906439,1233.5869276675282,-0.11122227725620004,3.0974237428270683,215.2805706429406,-0.1169296212249513,-0.2307197305384948,91.03368598472491,0.023107021646631646,0.0281554451002756,15.262073153012437,0.9447237618561822,0.0025917561578668734,0.0007021236608180145,-0.32792197937347456
2.2600000000000002,-0.10171921934437735,7.723782928096172,1235.744281572455,-0.11243499510150842,3.094690432209551,216.18986196691822,-0.125043007466553,-0.3200177745107782,90.82442526658052,0.03698738099024412,0.02885483738830846,15.351513115200188,0.9670305630584309,0.002827359982623619,0.0005902152065667866,-0.2547284788192145
2.27,-0.10284994090253144,7.754712160639938,1237.9107179164937,-0.11371645299358876,3.090968578355339,217.09705711481197,-0.1307727065043489,-0.4278026407740163,90.61442400279945,0.04962478836205447,0.024889530701361413,15.44061682366523,0.9837559808452443,0.0031094931441976734,0.00044835667374133086,-0.17960474976525517
2.2800000000000002,-0.10399371819178709,7.785598537415928,1240.0862157028903,-0.1150424731900197,3.086094805111834,218.00214874048766,-0.13403704849753315,-0.549654000494084,90.40383216984632,0.059533844490922055,0.01695681541690738,15.529381120190743,0.9947003456974409,0.0034241661287024746,0.00026240015806402187,-0.10297503581181411
2.29,-0.10515087689749214,7.816429926235454,1242.27075386473,-0.11638823329122695,3.07995184232003,218.9051316077355,-0.13486244686680182,-0.680658690346932,90.19263666870725,0.06554845546411989,0.006219599035277502,15.617783608202462,0.9996955558835681,0.003753707540571193,2.1925373990654476e-05,-0.025285458080004902
2.3000000000000003,-0.10632149132677118,7.847193248336511,1244.464311286832,-0.11772990334105318,3.072473986382336,219.80599985034542,-0.13338574207522266,-0.8156238479844552,89.98092972570426,0.06698091889985483,-0.005824010546190005,15.705832208431776,0.9986084704715521,0.004077885864887537,-0.0002787577964889484,0.05299779661050605
2.31,-0.10750540226904441,7.877875030631207,1246.6668667908662,-0.11904596209160825,3.0636496643790094,220.70474718058082,-0.12981297010266474,-0.9491971799826054,89.7684299845043,0.06372161541244113,-0.01753055839028802,15.793536879888237,0.9913439045151576,0.004375355515983976,-0.0006399588767957245,0.13139109725270376
2.32,-0.10870226544746717,7.908461933096966,1248.8783991323571,-0.12031819746843728,3.053516248272655,221.60136585624176,-0.12442884146907907,-1.076193426729391,89.55520940217589,0.05620202505108384,-0.027313430835512714,15.880915435415943,0.9778430250390429,0.004625143189946748,-0.0010569534826263601,0.20939774387788201
2.33,-0.10991156079362414,7.938941329275307,1251.098886991487,-0.12152923985399529,3.0421659006815225,222.4958500274097,-0.11755736861173725,-1.191806312591278,89.34156114871071,0.04540092187042706,-0.03387370117606915,15.967947348908469,0.9580892238291336,0.004808586964988405,-0.0015196081756538938,0.2865096596888381
2.34,-0.11113260567590601,7.969301675363558,1253.3283090053649,-0.12266568197761486,3.0297341190341514,223.38819612823278,-0.10961852068215139,-1.2916735188605684,89.12760800298955,0.0326704795143962,-0.03630985597081871,16.05463047111304,0.9321070032053563,0.00491011341427072,-0.002013751660756372,0.36221096425844285
2.35,-0.11236460949969648,7.999533026024767,1255.5666437795412,-0.12371876788762087,3.016397792710893,224.27840158098095,-0.10106032855141868,-1.372118273340745,88.91346190070838,0.019593957060502012,-0.034264409722134855,16.140964989703846,0.8999654686928329,0.004918578299711856,-0.0025217806296291227,0.4359814344747253
2.36,-0.11360669912216968,8.029627337082132,1257.813869896041,-0.1246844387338647,3.0023654925567587,225.1664643398587,-0.0923362552629518,-1.4302788938690503,88.69908446478732,0.007786324580144963,-0.02794936622730467,16.22695457963261,0.8617783969994285,0.004827892982546209,-0.0030240509555603465,0.5073001376650906
2.37,-0.1148579928119119,8.059578810297102,1260.0699659131417,-0.12556363142471477,2.9878699090994187,226.0523813353824,-0.08388423724951138,-1.4642361148021248,88.48417117391497,-0.0013274446547768192,-0.018140512264158845,16.312615063768632,0.8177052482658002,0.0046376699411180234,-0.0035002739032169426,0.5756497491881923
2.38,-0.11611767636195262,8.089384037853021,1262.3349103548314,-0.12636130107235774,2.9731607383163174,226.93614813918617,-0.07602350661745318,-1.473100114691791,88.2692242408216,-0.006690553322417789,-0.006066790863030301,16.397960494529535,0.7679502438457004,0.004353160631422645,-0.00393084093926679,0.6405204744774115
2.39,-0.11738495445609388,8.119042140367116,1264.6086817142473,-0.12708496776862502,2.9584881190038477,227.8177653961298,-0.0691098416931714,-1.4570110520401423,88.05424252425082,-0.007766300409869784,0.006758199075971276,16.482955086398192,0.7127640124243907,0.003984756696225675,-0.0042987459422774,0.7014139419361253
2.4,-0.11865914905019845,8.14855473682945,1266.8912584964544,-0.12774574854028994,2.944096880232788,228.6972327365647,-0.06338772553461654,-1.4171660271775537,87.83921592434965,-0.004601280829781368,0.018726259825283777,16.567606255929757,0.6524433967779322,0.003547259390893665,-0.004590493029927134,0.7578474963220565
2.41,-0.11993969484462705,8.177925778391396,1269.1826192000187,-0.12835659971883867,2.930215081556143,229.57454949119705,-0.059035254661074295,-1.3557236426561143,87.62412094733516,0.002192173454360055,0.02837210991659686,16.65191802732526,0.5873291323360472,0.003058554452403225,-0.004797161106830602,0.8093584373243214
2.42,-0.12122615783799419,8.207161397477954,1271.4827423137576,-0.12893144936078654,2.9170433947132794,230.44971452169716,-0.05617881032959736,-1.2757401198213443,87.40884657580366,0.011509061580466023,0.034561091787156044,16.735890668597886,0.5178064863475126,0.0025382790047552757,-0.004915110879495636,0.8555085706148625
2.43,-0.12251825210217913,8.23626955912667,1273.7916063104876,-0.12948538010446725,2.904748717792778,231.32272565472977,-0.0548461902930621,-1.1810101954373704,87.19334029793134,0.021916840933675685,0.03663921525646056,16.81952672149341,0.44430284308697027,0.002006311032780567,-0.004945968026015712,0.895888171284908
2.44,-0.12381584398438614,8.265259702379833,1276.1091896363778,-0.1300334518663611,2.893457042767832,232.19357968286886,-0.05497444644959309,-1.0759192789963123,86.97734247085634,0.03185003362262139,0.03452428837902808,16.902850527970955,0.367286025951569,0.0014812891318786564,-0.0048964282166657665,0.9301204166656345
2.45,-0.12511894654357522,8.294142299992119,1278.4354706902386,-0.13058961209803205,2.8832487123049093,233.06226971140683,-0.05643344342524329,-0.9651771727990305,86.76055208506291,0.03982984825781513,0.02871512895145531,16.985863196248975,0.2872617590690556,0.0009792486892515105,-0.0047776026862579035,0.9578653776568227
2.46,-0.12642770389042426,8.322928383792132,1280.7704277969553,-0.13116621770894216,2.874155466298883,233.9287896306472,-0.05902558808405638,-0.8537450085079535,86.54337793991444,0.04467686343997706,0.020218354620579797,17.068534504349305,0.20477119084195727,0.0005124736085697348,-0.00460395774184522,0.9788240955158577
2.47,-0.1277423731489874,8.351629057283537,1283.114039236553,-0.13177342818134397,2.8661596355679744,234.79313555806183,-0.06250487394773382,-0.7464978665230997,86.32571445709138,0.04567161762038352,0.010399238471417062,17.15087605221242,0.12038754282785046,8.877130270716887e-05,-0.004392004054296869,0.9927421581844429
2.48,-0.12906330005510705,8.380255008349934,1285.4662832433294,-0.132418719262825,2.859196053811685,235.6553022460336,-0.06658897065699147,-0.6480539725911174,86.10761423392788,0.042657242762786304,0.0007858394678695979,17.232887002103716,0.034712474504609035,-0.00028888879588799543,-0.004158841550568565,0.9994134096970967
2.49,-0.13039089071354681,8.408816048633973,1287.827137998632,-0.13310664472278225,2.853155482444451,236.5152836373904,-0.07097902295444977,-0.5625544081842422,85.88805729774796,0.036059775698567935,-0.00715403146683778,17.314570350398874,-0.0516278428798357,-0.0006223016185858858,-0.0039206586964847905,0.99868326171161
2.5,-0.13172558181161215,8.43732069320459,1290.1965816744867,-0.13383878107128536,2.8478900456077265,237.37309414285906,-0.07539092597379056,-0.4935664316119209,85.67771867522718,0.026822531328672457,-0.012229174142539304,17.395942230843072,-0.1379871367172129,-0.0009175107674228172,-0.003691322222232847,0.9904518153860798
2.5100000000000002,-0.13306781266017884,8.46577583580261,1292.5745936405804,-0.13461414363877594,2.843219964022065,238.22900516307013,-0.07955278413672402,-0.4440653084403686,85.5184407530209,0.016250359170112708,-0.013690634034180795,17.47700241436495,-0.22370422953063548,-0.0011837842509255282,-0.003481277860926337,0.9746752090632377
2.52,-0.13441800371888782,8.494186373163478,1294.9611571747555,-0.13542936633651778,2.838941165560893,239.0834783069572,-0.08317514842842844,-0.41558709986790654,85.38566040244409,0.005833635145141199,-0.011361965416316521,17.55774518999691,-0.3081070510507756,-0.0014325782255351551,-0.003296540589001852,0.9513711773606361
2.5300000000000002,-0.13577652851953953,8.522555204369507,1297.3562586385565,-0.13627832719489838,2.8348398339536582,239.93666682600335,-0.08604105941256514,-0.4086445428535039,85.2433975648721,-0.0029837732774813915,-0.005612834432733721,17.638180263994883,-0.39051882263829774,-0.0016760714982547859,-0.00313866748989938,0.9206157181396756
2.54,-0.13714368106952704,8.550883029888231,1299.7598852369995,-0.1371520825110808,2.8307013834774817,240.78839720400472,-0.0880403011447418,-0.4230793265024594,85.10241952207551,-0.009017745967245784,0.0026507410072431053,17.718312310694408,-0.47026332891839484,-0.001925851355939791,-0.003004423902483167,0.8825479627036438
2.5500000000000003,-0.13851965666539193,8.579168424927019,1302.172022017693,-0.13804059952125675,2.826316908898291,241.63871137131795,-0.089128958438872,-0.4576348191430736,84.96117017554273,-0.011529535556045595,0.012143777750262284,17.798139540243643,-0.5466707716971215,-0.0021914396669624006,-0.0028863283830070758,0.8373703688897329
2.56,-0.1399045539193806,8.607407942453344,1304.592654786842,-0.13893495701544045,2.821495529101803,242.48761506444185,-0.08933695345430141,-0.5100785823629529,84.8190494280208,-0.010344959872475051,0.021407226297254795,17.87768298599331,-0.6190840063254841,-0.0024790330478256903,-0.002773441980439445,0.7853488292595582
2.57,-0.14129838769152284,8.635596369340766,1307.0217695277724,-0.13982679259000316,2.8160730083162484,243.33509307307662,-0.08875467774063202,-0.5773672632955789,84.67657829392124,-0.005861517190382962,0.029040739813612264,17.956938784318154,-0.6868643844973914,-0.002790739464570444,-0.002652708281878679,0.7268116190572768
2.58,-0.1427010955664408,8.663727021200897,1309.4593519057487,-0.14070860960458562,2.8099185901364194,244.1811444635481,-0.08752664959035639,-0.6557932690579495,84.53361775430413,0.0010181205935679213,0.033913658050955045,18.035890046518883,-0.7493976270038197,-0.0031241757156091204,-0.002510332153785192,0.6621484854679807
2.59,-0.1441125447504442,8.691792080137608,1311.9053876420105,-0.1415750476234844,2.802941055951498,245.02576386312697,-0.08584812864446849,-0.7411453448881917,84.39016599109952,0.009021359427329637,0.03534144368187512,18.11456105099549,-0.8061000721475142,-0.0034724164972577513,-0.0023331729958029532,0.5918096819451935
2.6,-0.1455325635294283,8.719783037418985,1314.3598623932244,-0.14242262079889087,2.7950936616069493,245.86894634650588,-0.08393397668471604,-0.828944159900268,84.24624817159457,0.016721354866512383,0.03320669630973694,18.192970102276398,-0.8564254403247914,-0.0038244305300453854,-0.0021103253271577936,0.5163041082410291
2.61,-0.1469609538726756,8.747691146083719,1316.8227617662994,-0.14325021178753797,2.786374715811137,246.71068768207843,-0.0820096825227014,-0.9146681445168728,84.10195146348883,0.02277366765246814,0.027960585799371353,18.271100917350573,-0.8998704877360478,-0.004166061084191548,-0.0018342645206437004,0.43619595356525365
2.62,-0.1483975186820517,8.77550785703797,1319.2940713315522,-0.1440591761623644,2.7768261204760734,247.5509842114023,-0.08029439820142871,-0.9939744813283653,83.95730609518216,0.026122718632136003,0.020535450275223154,18.34894581548639,-0.9359797743538623,-0.00448123976480185,-0.0015016268572038088,0.3521004839075043
2.63,-0.1498420890049588,8.803225265996868,1321.7737766237872,-0.14485289192644094,2.7665320755192804,248.38983258086535,-0.07897770848632653,-1.0629359323779826,83.81229443967699,0.02618413560485572,0.012202202319031706,18.42653180610931,-0.964352560448075,-0.004753375872188414,-0.0011138443336827376,0.2646813254479307
2.64,-0.15129453451758096,8.830836487037542,1324.2618631455948,-0.14563592231121045,2.7556134762617805,249.22722950320843,-0.07820467808850552,-1.1182361394978633,83.6670614037918,0.02292584678517841,0.004349719999178667,18.503870026849025,-0.9846471299786305,-0.004966888979831184,-0.0006770481998392332,0.17464510428268443
2.65,-0.1527547775251207,8.858336006922237,1326.758316371503,-0.14641431607303573,2.7442205770902124,250.0631732153525,-0.07807707384428095,-1.1573363693159402,83.52166583169114,0.016874696610422596,-0.0017498486613752402,18.58094186583093,-0.996586449074833,-0.005108629566392246,-0.00020161544929750267,0.08273665631316973
2.66,-0.15422280689084944,8.885719928543027,1329.263121760903,-0.14719497049268396,2.7325244081996827,250.89766203023837,-0.07864143297913984,-1.178587540862899,83.37606497108003,0.009012954045033328,-0.00515365219838689,18.657768515406534,-0.9999620773525032,-0.005169052310864207,0.0002987566823456425,-0.01026702996693233
2.67,-0.1556986812789992,8.912986127831646,1331.7762647557647,-0.14798490251263155,2.720707639677316,251.7306939610392,-0.07988170563540713,-1.1813135276074707,83.23028743772238,0.0006056111660931967,-0.005398649322478774,18.73434491016248,-0.9946379644780937,-0.005143032832237125,0.0008082427344346828,-0.10356319756254878
2.68,-0.15718252662015625,8.940134318790347,1334.297730779175,-0.14879063528907688,2.708954832850783,252.56226744431387,-0.08172063497383232,-1.1658350368967836,83.08440539140155,-0.007014552974396526,-0.0025715836263668778,18.810652470834167,-0.9805536663485104,-0.005030267410024914,0.0013102580452310291,-0.1963299179210289
2.69,-0.15867452999568762,8.967166028982797,1336.8275052403708,-0.14961764690685664,2.6974424992284725,253.39238147783468,-0.08402480921439538,-1.133439709144197,82.93838673262626,-0.01267611903257411,0.0027117744399345403,18.88671602232133,-0.9577272797855413,-0.0048352373393796295,0.001788905012471467,-0.2877331867911452
2.7,-0.160174926822953,8.994084482142831,1339.3655735374002,-0.15046981313997995,2.6863297568154114,254.22103431530974,-0.08661211174908985,-1.086310891566939,82.79214012821113,-0.015572926028597564,0.009417367141362864,18.962547939177572,-0.9262578368871957,-0.004566730680359157,0.002230338353596069,-0.3769346433968343
2.71,-0.16168397656089342,9.02089433925911,1341.9119210474394,-0.15134897778455195,2.675750404664663,255.04822344852656,-0.08927591379940088,-1.0273644829388255,82.64564265424791,-0.015382172635258444,0.016285900145472425,19.038139527008124,-0.8863241752104265,-0.0042368281436602215,0.0026237891086368856,-0.46309907048036336
2.72,-0.1632019438142892,9.04760152339039,1344.4665331184492,-0.1522548638185389,2.6658019864869873,255.87394616926906,-0.09178396826985252,-0.9601799717033116,82.49886552412896,-0.012372109769099936,0.022062388529971517,19.11349019230216,-0.838194652432696,-0.003859890670904939,0.0029627668635313006,-0.5454038579988553
2.73,-0.1647291029046063,9.074212665834251,1347.0293950731536,-0.15318593743573405,2.6565514372009984,256.6981995535579,-0.09385479304140314,-0.8886505022295331,82.35175914355193,-0.007231655500093628,0.025676796312177695,19.188605837870135,-0.7822087347717518,-0.003450977943206975,0.0032443111527665066,-0.6230438261691752
2.74,-0.16626574789602142,9.100734925732887,1349.6004922000295,-0.15413931972718814,2.6480259044296672,257.52098005341065,-0.09511628730289778,-0.8167750019925875,82.20426819211286,-0.0010817238208579872,0.026503433418349223,19.263487555426412,-0.7187961504721083,-0.003024663113677154,0.003469901671193568,-0.6952452267829607
2.75,-0.16781202650557112,9.127175482331314,1352.1798097503518,-0.1551046557702712,2.6402076364998246,258.34228366013826,-0.09544195593193809,-0.7486118863811702,82.0563651335677,0.0048341609449280894,0.024439520551523732,19.33813711933214,-0.6484628517285996,-0.002593477654611664,0.003644869294384315,-0.761270654115994
2.7600000000000002,-0.16936793189079055,9.15354124449549,1354.7673329363745,-0.15606574281022118,2.6330363456750225,259.16210604381934,-0.09494177735188765,-0.688111503127091,81.90804131323243,0.009304479841989271,0.019897526900245016,19.412557631576778,-0.5717871445251979,-0.0021672558266744757,0.003777626376839927,-0.8204233574956411
2.77,-0.17093337375238965,9.179838131752158,1357.3630469210952,-0.157010233561302,2.6264153437049655,259.980442881681,-0.09371282030397884,-0.6385202286440371,81.7592539255968,0.01148647171393549,0.01379310332466712,19.486751891716395,-0.4894269500347775,-0.001751509949054284,0.0038777501901781854,-0.8720655024931789
2.7800000000000002,-0.17250817329746265,9.206071061536033,1359.9669368270636,-0.15793347249134992,2.62022445499911,260.79728965135297,-0.09185141959245849,-0.6022342052893229,81.6099997060205,0.010981292377532996,0.007245713506273841,19.56072438678547,-0.40210207797089115,-0.00134816384936401,0.003954222932076006,-0.9156157518537331
2.79,-0.17409206571389987,9.232243714734182,1362.5789877324335,-0.1588389474348995,2.614323154021666,261.6126415997771,-0.08945918047316273,-0.5806294885497356,81.46033434327734,0.007933782702729781,0.0014347699843893901,19.63448180079837,-0.3105963350317488,-0.0009554841679482926,0.004014430154852379,-0.950560222621074
2.8000000000000003,-0.17568486152299334,9.258358108047304,1365.1991846641504,-0.15971950848294725,2.608560783926913,262.42649453284855,-0.08661281277457122,-0.5743776060634049,81.3102010978952,0.002954883227034969,-0.002685725592102979,19.70802736167169,-0.2157529406700529,-0.0005695903930154423,0.004063480229347182,-0.9764680502867863
2.81,-0.17728633263667432,9.284414913415466,1367.8275126114374,-0.16056960446612342,2.6027843686691696,263.2388438970572,-0.08340464723995808,-0.5833639981665925,81.15959740499096,-0.0030510021063607853,-0.004447369670109201,19.781351766765557,-0.11845839079938529,-0.00018522685199965554,0.004103923957521719,-0.9929786049452669
2.82,-0.17889614315479285,9.310413259580045,1370.463956515173,-0.16138692827999943,2.5968461042247117,264.0496851939617,-0.08006468628206605,-0.6065169863060672,81.0086041828909,-0.008971805040317962,-0.003669271478795699,19.854450220366676,-0.0196443100416901,0.00020364156366730018,0.00413482963430294,-0.9998263831272636
2.83,-0.18051396132781083,9.3363508560015,1373.1085012749058,-0.16217116631861364,2.5906131711813813,264.85901438569203,-0.0768286184180489,-0.6419465253057854,80.85713966628259,-0.013737854320986741,-0.0006538929860609344,19.927335237630658,0.07972640842273178,0.0006023114503281916,0.0041520274540415856,-0.9968359968189509
2.84,-0.18213946610819817,9.362224181836998,1375.7611317467065,-0.16292452480490616,2.583975373788222,265.6668268068665,-0.07394265241372448,-0.6870563660758234,80.70529642496348,-0.016520778111533997,0.003870607742430935,20.000023104912206,0.17866724685723379,0.0010142607930465836,0.004148558128864768,-0.9839287642829077
2.85,-0.18377236946905512,9.388028754104552,1378.4218327436226,-0.1636516714553711,2.576851062288356,266.4731188501951,-0.07164376704946984,-0.7387201758005663,80.55300437963544,-0.01689443112296826,0.008901817252706877,20.072484677266626,0.27617808330274435,0.0014402531227376693,0.0041155373097672785,-0.9611257440102492
2.86,-0.18541244058775486,9.4137594341187,1381.0905890439553,-0.1643595637223667,2.5691915791596154,267.27788703210683,-0.07014198220336253,-0.793489458995607,80.40078383312903,-0.014910719869776339,0.01336581069292965,20.14474687302006,0.37125532842529607,0.001877786912156034,0.004043285631030203,-0.928550560845921
2.87,-0.1870595283683264,9.439410773856876,1383.7673853821454,-0.1650569232251052,2.5609832356004927,268.0811243085259,-0.06959585701395138,-0.8477795545292579,80.24535565492586,-0.011071530586253474,0.01632442237896821,20.216811471042785,0.4629022754168995,0.0023210181139278322,0.003922546229615659,-0.8864281780913044
2.88,-0.18871357759245735,9.464977396218032,1386.452206465333,-0.16575304046243053,2.552249152685886,268.8828321183361,-0.07011566733740301,-0.8982318139204364,80.091172808752,-0.006227129678659288,0.01718309938307486,20.28866318233496,0.5501415117327418,0.0027609526331494726,0.0037458850357561524,-0.8350922694366057
2.89,-0.19037461929010802,9.490454216641503,1389.1450369914876,-0.16645770107969649,2.543042887480509,269.6830287345484,-0.0717361034425475,-0.9418687679857464,79.96029565244075,-0.0014178509280239554,0.015727795177147817,20.360323953922627,0.6320202999331652,0.0031862768466582236,0.003508137417874179,-0.774971933246246
2.9,-0.19204278256600385,9.51583694093552,1391.8458614779931,-0.16718330760360497,2.533446808162169,270.4816148699618,-0.07442507022290541,-0.9751660672028752,79.75874063465272,0.0023783373881943906,0.012271156199089014,20.431782624657913,0.7076311895496721,0.0035842347229885804,0.003207810851527496,-0.7066038622665903
2.91,-0.19371832300363195,9.541122201553133,1394.5546604369042,-0.1679415242338949,2.523572015578557,271.2778874287136,-0.0780438614042322,-0.9955683355243509,79.42693814015922,0.0044032033500959146,0.007496503095353522,20.503024842600173,0.7761144983504326,0.003941786880549342,0.002847013566821953,-0.630616062039201
2.92,-0.1954016521545388,9.566307857526223,1397.271405885053,-0.16874029493058412,2.5135595090516625,272.07031573888844,-0.08229924988426997,-1.0027587964395692,79.05316605562057,0.004287192191551846,0.002364369613700982,20.574055137092984,0.8366705557273872,0.00424665290306077,0.0024319433676129078,-0.5477314494789537
2.93,-0.1970931940440104,9.591393277117305,1399.9960567091846,-0.16958411679240426,2.5035435252195297,272.858773369413,-0.08679753276590496,-0.9969148661223722,78.67665060313563,0.002156308932343868,-0.002139223827335039,20.644842586726398,0.8885755464499174,0.004489016843399228,0.001972215135419187,-0.4587624423634945
2.94,-0.1987933932349047,9.616379057447434,1402.728570449797,-0.17047440940982583,2.49364925407347,273.64366181642725,-0.09116093569868203,-0.9787173859591873,78.30069842029143,-0.0014747541788461371,-0.005176622739344076,20.715345174176292,0.9311811986879367,0.004661964466924076,0.0014796034647036184,-0.3645961846781036
2.95,-0.20050273770481758,9.641266972599752,1405.4689152088245,-0.17140907502875055,2.4839921615142635,274.42483087359136,-0.09513530339906488,-0.9496949634693113,77.92463188411729,-0.005763751028358733,-0.006266182421057479,20.785541745863995,0.9639321077759653,0.004762450280767352,0.0009671375773239092,-0.2661959189714597
2.96,-0.20222165723156452,9.66605993316481,1408.2170539435033,-0.1723818803119824,2.474671032758316,275.2021997045591,-0.09839274792749719,-0.9120452427527871,77.54786835811495,-0.00978154202057413,-0.005381559517480504,20.855435967886667,0.9863777417939015,0.0047911644377006376,0.0004478806943308618,-0.1645887886116269
2.97,-0.20395045642512002,9.690761727315364,1410.9729470009734,-0.17337924469742896,2.4657637867078455,275.97579378672737,-0.10064095155647791,-0.868597965236536,77.17159428966761,-0.012657548252778102,-0.0028866727731611396,20.925030619591492,0.998162234981759,0.004752081208150458,-6.590072586608217e-05,-0.06085056123268979
2.98,-0.20568930497584814,9.71537669996862,1413.736557230398,-0.17439282400953668,2.4573083773419264,276.7456278714464,-0.10189201236403317,-0.8222617421861711,76.79928323370467,-0.013860477260055194,0.000523918077775348,20.994315017444826,0.9990516694092355,0.004651615892640132,-0.0005647521799287513,0.04389783405326238
2.99,-0.20743833406008588,9.739909450388756,1416.5078468746506,-0.17541336562239843,2.449319133017219,277.51167755432556,-0.10203168778576975,-0.7758713870124582,76.41481596085448,-0.013200486300838843,0.00400265036008828,21.063287699001148,0.9889276662861901,0.004497617420566863,-0.0010413360210387583,0.14850645473051008
3.0,-0.20919755781983376,9.764364572086238,1419.2867786279628,-0.17643001920401122,2.441779350243655,278.27411120885563,-0.10109192104534809,-0.7332249500223076,76.11860092249924,-0.010888775036958223,0.006722703974273586,21.131944147624473,0.9677941663088961,0.004298580022157967,-0.0014910226764128505,0.25180828082956797
3.0100000000000002,-0.21096686464271872,9.788746596842426,1422.0732914244559,-0.17742704784928898,2.4347047935436534,279.0263488831961,-0.09760288997525685,-0.6780398400713952,73.7976408346467,-0.007485000524417657,0.008045499644811164,21.200242564245592,0.9357804472930257,0.004062649335416431,-0.0019117713665410957,0.35263121580525936
3.02,-0.21274595649794945,9.813060512530939,1424.867210105511,-0.17838189456911194,2.4281795508914175,279.7513723899493,-0.09306122475353737,-0.629467020047749,71.30917046559762,-0.00376558572286424,0.007667247364183851,21.268072301794458,0.8931423846328509,0.0037966972306906076,-0.0023036778402407442,0.44981240427374625
3.0300000000000002,-0.21453435485633643,9.837311519043173,1427.6682474954507,-0.17928796803793076,2.4220881017347367,280.452088839916,-0.08787935620488203,-0.5911490337739994,68.89587916280819,-0.000548352398962794,0.0056736214408237146,21.335346757322565,0.8402628147002786,0.003505723737394161,-0.0026682289405583256,0.5422116653947019
3.04,-0.21633154846566577,9.86150336053143,1430.4761717525357,-0.18014006672544494,2.416326851904835,281.12894243082627,-0.0822762290343347,-0.5627602131555993,66.45325300467341,0.001492854816673645,0.0025119044967592116,21.401896315537766,0.7776495442070996,0.0031925196486465557,-0.003007402115091845,0.6287262424882464
3.0500000000000003,-0.21813698238563917,9.885638832924048,1433.2907437396668,-0.1809351660564659,2.4107998486280264,281.78127478336825,-0.07658992920767929,-0.5445297442334615,64.02025262035923,0.0019740963803372685,-0.0011222556431518603,21.467648947045127,0.7059330928872908,0.002857798679685923,-0.0033227210458414706,0.7083038865491738
3.06,-0.2199500844229659,9.909719799843021,1436.11171677547,-0.18167406583053142,2.4054077300228975,282.4093100838891,-0.07113261156759655,-0.5355396153470454,61.584787983561384,0.0008778294531362292,-0.00444762658310856,21.532668200128324,0.6258606286587697,0.0025006222211745536,-0.003614481109445621,0.779957823311534
3.0700000000000003,-0.22177030951728638,9.93374715810492,1438.938848576012,-0.18236062083814786,2.40006547005475,283.0129816572631,-0.06622942251367943,-0.534312003439576,59.15016005747689,-0.001453041009000797,-0.006780518103969093,21.596825447519837,0.5382906100219331,0.0021191135449210633,-0.003881165308107283,0.8427812589746093
3.08,-0.22359716545270938,9.957721069455049,1441.7718953069675,-0.18300155470321042,2.3947040965564717,283.59231081747504,-0.06210268170896798,-0.5389676532885946,56.71533448408903,-0.004415019678556804,-0.007670448827591249,21.659839926557467,0.4441810281994418,0.0017113195542408975,-0.004119305790876539,0.8959548334931835
3.09,-0.22543025053765825,9.981641069343514,1444.610613633233,-0.18360546841093986,2.3892783975172756,284.14729278271665,-0.05892866520147992,-0.5472571620052796,54.281537562296755,-0.007278471555031097,-0.007032937082883804,21.721743958916246,0.34459168062150775,0.0012762220181443793,-0.00432338512368796,0.9387725560235625
3.1,-0.22726923107262684,10.005506369493164,1447.454760073473,-0.18418171683572193,2.383762154729344,284.6779412201748,-0.05689484746428969,-0.5566690055994876,51.84777749508962,-0.009336561943540824,-0.005079604516927533,21.782714442264083,0.24065391448651302,0.0008140502669624536,-0.0044866275836599676,0.9706273140982721
3.11,-0.2291138337874742,10.029316046471703,1450.3040913185714,-0.1847400488361491,2.378153068118153,285.1842545824883,-0.05614788760671313,-0.5649317211765189,49.414526173463415,-0.010113213590641074,-0.0023611707606386216,21.842410824202457,0.13357458324361818,0.000327298711988809,-0.004601433070745518,0.9910535531984592
3.12,-0.230963944791222,10.053069267675458,1453.1583640685396,-0.18529345914486356,2.3724726973610926,285.6662363741002,-0.05663671070895596,-0.5698715789618518,46.982221253871074,-0.009432042672739652,0.00043535098398275176,21.900651858215706,0.02461218274006971,-0.00017908167323559064,-0.004660137415327662,0.999712176851632
3.13,-0.23281963769674843,10.076765461160972,1456.0173350119105,-0.1858576041087407,2.3667668694166,286.12390049278963,-0.05807611400501912,-0.5694757742584535,44.550822818968406,-0.007461327761827896,0.0025967857553827658,21.957578227373943,-0.08493105307316823,-0.0006974938721040929,-0.00465564417357742,0.996399689952727
3.14,-0.23468106186722365,10.100404752657115,1458.8807610392346,-0.18644089557341842,2.361097215520001,286.55725683090975,-0.06013857788471637,-0.5624761277630372,42.12053910374374,-0.004694138640272929,0.003642170512674902,22.01312423065522,-0.19372944277608126,-0.001218133992380207,-0.004583373766520168,0.9810692254409222
3.15,-0.23654842544409688,10.123987830378585,1461.7483991459312,-0.18704851462656383,2.355533005762408,286.9663149473661,-0.06252441865304738,-0.5481212920821413,39.691397596190804,-0.0017653197609327374,0.0033495157191158723,22.067185929661385,-0.3004509984833893,-0.001730095296374785,-0.004441089099299689,0.953811106971745
3.16,-0.23842199959832167,10.147516005494602,1464.6200063876586,-0.18768428701719314,2.350147578694762,287.35108676344726,-0.06497941125983413,-0.5261526868354413,37.2630248860567,0.0006660677157395885,0.0018269481252382702,22.119756665702006,-0.403770089929637,-0.0022219599760191764,-0.004229338310901779,0.9148718189937812
3.17,-0.2403020898412686,10.170991554947568,1467.4953399567964,-0.1883449620432102,2.3450182006559785,287.7115821607561,-0.06702551699332508,-0.4971422039876537,34.836088405339694,0.0021193242482542536,-0.0004846333708761962,22.170934061390426,-0.5023933896570726,-0.0026826502638349447,-0.003952173364052864,0.8646549008248363
3.18,-0.24218891528744593,10.194417434422908,1470.3741571550884,-0.18902186070921476,2.3402165927434164,288.04781527331886,-0.06821776542625696,-0.46223491842479264,32.41064240988366,0.00234660394070743,-0.002984633989151054,22.220586767321695,-0.5950648211451058,-0.0031023343490855096,-0.0036161081805948154,0.8036944891769945
3.19,-0.24408255577869356,10.21779713053326,1473.25621543104,-0.18970696903624532,2.335788606583305,288.3597998681451,-0.06866609837225829,-0.4227139469845365,29.986626620800127,0.0014490468622203956,-0.00511707603352018,22.268654459186177,-0.6805936711975467,-0.0034740120402851934,-0.0032290805081752433,0.73267963159659
3.2,-0.24598305549020025,10.24113458005666,1476.1412723848982,-0.19039227435384748,2.3317720915625726,288.6475536740433,-0.06824550753265192,-0.3802211354646488,27.564219704491066,-0.0002447164443006419,-0.006414318943840868,22.315087065084086,-0.7578661684010923,-0.0037924112551026064,-0.0028001961949363414,0.6524312470256053
3.21,-0.24789037196355518,10.264434017993011,1479.029085777226,-0.19106888877223804,2.3281885303974073,288.91108992098253,-0.06692836054716514,-0.33640957701422175,25.143369437731,-0.002234913208727889,-0.00662996676789049,22.359887164982162,-0.8258619665766588,-0.0040545608984068095,-0.002338920906194883,0.5638978075200138
3.22,-0.24980437383192794,10.287699809266515,1481.9194135206403,-0.19172789281012087,2.3250422029389735,289.1504270362359,-0.0647273946747089,-0.2930827838986906,22.724254481853748,-0.003978929710979183,-0.005785346492725282,22.403050778323703,-0.8836694256409439,-0.004259571196241291,-0.0018543524578292945,0.4681427408174992
3.23,-0.25172484265521666,10.310936276313003,1484.8120137024353,-0.19236085527144317,2.3223205081139326,289.3655799606714,-0.0617323822872023,-0.25169763151953434,20.306644195792813,-0.005021217602764357,-0.00415361759831957,22.444349098551,-0.9304988337611979,-0.0044082214725320555,-0.0013546693988040562,0.3663341608439499
3.24,-0.2536514812248155,10.334147545360869,1487.7066445682572,-0.19296058281359477,2.3199971578427556,289.5565675164938,-0.058096040370137485,-0.21363600831500104,17.89124856468428,-0.005102280594472799,-0.002184841904869062,22.48413095410739,-0.9656964041555374,-0.0045023943230219745,-0.0008467569644704945,0.25972992866903183
3.25,-0.2555839264996602,10.35733741501541,1490.6030645786059,-0.19352152125945293,2.318033291791026,289.7234126067822,-0.05401820203923804,-0.17994015517557502,15.478108729124706,-0.004210537887244594,-0.0003839844862356864,22.522140937940065,-0.9887525515125554,-0.004544427830517824,-0.0003361127655722246,0.14965981281934723
3.2600000000000002,-0.2575217718271264,10.380509252871725,1493.5010324058264,-0.19404021911028935,2.3163824202625722,289.8661329679814,-0.049691727184410575,-0.15107770781819385,13.06628933074345,-0.0025742253996573327,0.0008111600656718124,22.558199445366867,-0.9993110537348251,-0.0045365451650823925,0.00017298485662682776,0.0375121119883179
3.27,-0.25946458629533353,10.403665940868766,1496.400306883106,-0.19451537957612802,2.3149948254613846,289.98474692939345,-0.045354890180474366,-0.1272860287779606,10.656917970901008,-0.0005945639521611413,0.0011357686510217418,22.59266464590768,-0.9971768271631486,-0.004480416247036004,0.0006771409969797574,-0.07528740587623364
3.2800000000000002,-0.2614119379489142,10.426809860223036,1499.3006470720982,-0.19494797507600786,2.3138206031001434,290.0792792471923,-0.041211844084527306,-0.1083338230396922,8.24995432206763,0.0012617836054575693,0.000551591644569349,22.625465836239382,-0.9823191628011013,-0.004376937096252181,0.0011733632605289198,-0.18729388945024522
3.29,-0.26336341399924035,10.449942911032036,1502.2018122753839,-0.19534096164931228,2.3128140851128194,290.1497533249677,-0.03745812717004232,-0.09361487298449254,5.845138142464397,0.0025776432891342935,-0.0007537264585431712,22.65633806161156,-0.9548740614703234,-0.004226219932465697,0.0016585567768938264,-0.29706145049070104
3.3000000000000003,-0.2653186402251851,10.473066572898237,1505.1035618872663,-0.19569882393415217,2.3119377725275623,290.19611111765994,-0.03418268352751573,-0.08176084930690022,3.386218422394983,0.0030866861087735964,-0.002423994622445177,22.68535564613539,-0.9151447763426478,-0.004027807438123359,0.00212905828007689,-0.4031631578652613
3.31,-0.26727730341606515,10.496181855681328,1508.0056703277044,-0.19603062651148276,2.311115664888755,290.2235897939637,-0.0323316348574803,-0.08371841773705785,2.190771426825291,0.0027289798475291704,-0.00402971866558804,22.712569993830954,-0.8635985744982524,-0.00378105799064392,0.0025803330870147437,-0.5042116534252777
3.3200000000000003,-0.26923920479178254,10.519288770090506,1510.907996465247,-0.19634750005095417,2.3102614579131497,290.2397060983223,-0.031148512327639644,-0.08726186928814594,1.0336096504102539,0.0016550474269399291,-0.005175965624359241,22.738084316404727,-0.8008614490649145,-0.003485625522810708,0.0030068458113968024,-0.5988781475596345
3.33,-0.2712042272555137,10.542386960436676,1513.8104259226761,-0.19665577355986016,2.3093705255043875,290.2442573545137,-0.030606368321000835,-0.09088915465761901,-0.12279877588170846,0.00017946448065181197,-0.005595946629607933,22.761883335781597,-0.7277109892733957,-0.0031419652282589795,0.0034021246578259524,-0.6859108972537085
3.34,-0.27317231547831566,10.565476073615368,1516.7128431026565,-0.1969616385960021,2.308447396898793,290.23725362345925,-0.030660119062190266,-0.09351980901723896,-1.2776686808656466,-0.0013038310636343587,-0.005208889989476135,22.784060548381895,-0.6450666954967349,-0.0027517731879630547,0.003759036410035061,-0.7641525014267301
3.35,-0.27514347358673646,10.58855585358203,1519.6151325244773,-0.1972706451187877,2.307506908123444,290.21870837793284,-0.031228375487163507,-0.09419999302777013,-2.431188372420813,-0.002420399872013719,-0.004128273560488616,22.804632205609902,-0.5539768659580162,-0.002318292446843387,0.004070199304268207,-0.832555327557822
3.36,-0.277117754378668,10.611626236884188,1522.5171788434006,-0.19758720373199423,2.3065724527227474,290.1886354763871,-0.0321833090591048,-0.09218573905130886,-3.583008953849168,-0.002902225985877773,-0.002631409027235692,22.82362401933613,-0.4556105871603312,-0.0018465002208807625,0.004328493030394589,-0.8901998604958297
3.37,-0.2790952483467219,10.63468742629816,1525.4188668451725,-0.19791451145155797,2.305673445530048,290.1470461722311,-0.03337964234099044,-0.08698719530720933,-4.735393697077897,-0.002652001345355015,-0.0010789865542948415,22.84109750168008,-0.3512376007382468,-0.0013430401362521304,0.004527619669808367,-0.9363058823912149
3.38,-0.28107607985859173,10.657739940658708,1528.3200814569368,-0.1982543852775075,2.304843276847205,290.0939634277194,-0.03463920734390942,-0.07846981528659397,-5.8774761358431205,-0.0017563486407707325,0.0001757194568153679,22.85720699598166,-0.2422105589201452,-0.0008160000039682065,0.004662554687971276,-0.9702428043542994
3.39,-0.2830603711254701,10.680784635384471,1531.2207076995862,-0.19860648073799125,2.3041160839449635,290.0293566261378,-0.03577963376590479,-0.06621257394599178,-7.060921383372703,-0.0004526050090800876,0.0008741380558885148,22.871934140610804,-0.12994862154306772,-0.00027446447672649436,0.004729993242907044,-0.9915378913023414
3.4,-0.285048235493788,10.70382269815002,1534.1206313860075,-0.19896918429855853,2.3035218532894697,289.9534184979527,-0.03672960406952275,-0.05146964630980426,-8.185831744844446,0.0009391934252681464,0.0009120468712556994,22.885259278484913,-0.015920059892189087,0.00027196538087353897,0.004728572595662171,-0.9998916322085536
3.41,-0.28703976885914156,10.72685553933663,1537.0197454236504,-0.19934058757462203,2.3030735093653814,289.8677509597835,-0.03771828349411671,-0.03964969790253316,-8.734517316714667,0.00208567137343857,0.00034123210455475506,22.897131241211696,0.09837784373100192,0.0008136153774974087,0.0046587429683859665,-0.9951655387050231
3.42,-0.2890350710580958,10.749884506853803,1539.9179761424891,-0.1997219600387986,2.302739494844338,289.77806964584266,-0.03838300736385693,-0.02780815339841758,-9.084626544889195,0.0027428221353863686,-0.0006289585901978576,22.9077305844878,0.21144291953276337,0.0013413285810078752,0.00452278830844337,-0.9774064778476949
3.43,-0.29103422591140815,10.772910764155018,1542.8152900876246,-0.20010975567587974,2.3025192578326816,289.6860724390603,-0.038448811049756365,-0.013801140526136102,-9.54364305553158,0.002798749190146593,-0.0017066597878274497,22.9171697854118,0.3217867848336778,0.0018468427086693509,0.004324517730111848,-0.9468300440029357
3.44,-0.2930372680985927,10.795935431759673,1545.7116723172828,-0.20049468632069306,2.302452685121674,289.58832063729153,-0.03799419539876967,0.000295689322966277,-9.983598684419542,0.0022948786518162878,-0.002583224975091399,22.92541732954254,0.42795115968055153,0.0023230604113962682,0.004068957616754222,-0.9038184862676639
3.45,-0.295044120246994,10.81896015708977,1548.6070521189863,-0.2008721251109035,2.3025268946475177,289.4859956619772,-0.03707296426498987,0.01378034560246787,-10.413939996853312,0.0014240434291563032,-0.0030312024883610423,22.93256915589396,0.5285331760431201,0.0027642992088181837,0.0037617254337220245,-0.8489296171338948
3.46,-0.2970546880048524,10.841986350322586,1551.5013799319497,-0.20123820174338544,2.3027270908216275,289.37977767620566,-0.035739861096526854,0.026120538204925905,-10.850980473242986,0.0004471928755968196,-0.002946283790734974,22.938689440569735,0.6222031453516194,0.00316600433702823,0.003408633803988974,-0.7828761227002171
3.47,-0.2990688575453724,10.865015112126548,1554.3946285756622,-0.20158894894966528,2.303044151304523,289.2690963724306,-0.034088459731731705,0.036668389139228715,-11.285667719442811,-0.00036285794663020875,-0.002360100926960123,22.94379078254125,0.7077181125383846,0.0035246202965917325,0.0030154454696537667,-0.7065158901609961
3.48,-0.3010864369958862,10.88804754331952,1557.286748881034,-0.20192154986227517,2.303456076436563,289.15405116188674,-0.03228706421432657,0.04504059362026716,-11.71952273158554,-0.0007875630524196511,-0.0014435337288714349,22.947904857998957,0.7839450084581434,0.0038375184895815804,0.002587602094049456,-0.6208520296022888
3.49,-0.30310724791064636,10.911084479351766,1560.1776957394848,-0.20223567653075317,2.3039398777246243,289.0346946680963,-0.0304610081391849,0.05108256765636415,-12.153311619847404,-0.0007322879543437336,-0.0004320737932576162,22.95112026664088,0.8498757091104915,0.0041023709208791274,0.0021301757753264725,-0.5270109646941076
3.5,-0.30513111622541683,10.934126511474625,1563.067427829709,-0.20253189126860138,2.3044728089569926,288.9109948104709,-0.028711933510189303,0.05479352276005421,-12.586429639942573,-0.00022339511236588953,0.0004265632766104786,22.953512118860157,0.9046333744113918,0.004317065101523379,0.001648005985159553,-0.42622460791627576
3.5100000000000002,-0.30715784723222567,10.957174042207589,1565.9559012948152,-0.20281019624426563,2.305031336988387,288.78296619675405,-0.027162926822753865,0.056288681094066484,-13.019005506644927,0.0006034583818902286,0.0009266776006860391,22.95506012630299,0.9474909463241245,0.004479704510451758,0.0011458555148272573,-0.3198212002856643
3.52,-0.30918728189554223,10.980227186247586,1568.8430727766013,-0.20307460030804061,2.305594882412028,288.65061591589466,-0.025923028980700622,0.05596539887289434,-13.45106870592163,0.0015231681231420784,0.0009765412930409594,22.95573396738899,0.9778855956744663,0.0045881430509044875,0.0006284416497755161,-0.20920524717491396
3.5300000000000002,-0.31121930583985224,11.003285907922972,1571.728899193531,-0.2033288954960136,2.3061476003096675,288.5139471037358,-0.02502838847831173,0.05429591610175939,-13.88258929303158,0.0023053988348208498,0.0005920876620535005,22.955597488298196,0.9954113979929037,0.004640291548927279,0.0001008899964508683,-0.0958344583545549
3.54,-0.3132538377729264,11.026350081798215,1574.613337350548,-0.20357485460451355,2.3066789771513476,288.3729658152175,-0.024457629417841117,0.05172860436918313,-14.313576901005474,0.0027757751907756282,-0.00010636397152802084,22.954797341395537,0.9998364152065837,0.004634371202953448,-0.0004310184838384459,0.01879505242823147
3.5500000000000003,-0.315290785844002,11.049419409515954,1577.4963441520908,-0.2038176779561405,2.307181285811348,288.2276773361594,-0.024300317447088677,0.04887248162515733,-14.744033715830115,0.00281874205826854,-0.0009214758699448324,22.95329689377005,0.9911051738165406,0.004568835619126289,-0.0009612595072820672,0.13317119348400888
3.56,-0.31733017310749906,11.072493615600683,1580.3778765571788,-0.20406082808256315,2.307656370900591,288.07808706053066,-0.024434235160240472,0.046282188409078016,-15.173925175419141,0.0024524375914430252,-0.0016442911022899402,22.951105367764757,0.9693366361628802,0.004442865934041163,-0.0014828265165169325,0.24578627004945086
3.5700000000000003,-0.3193720179905233,11.095572468592938,1583.2578915742451,-0.20430611913436109,2.3081095623913774,287.92420074248804,-0.02477932380959423,0.044395936917907934,-15.603231961864704,0.0017817719425444163,-0.0021005355595800196,22.948219629761915,0.93482077771328,0.0042566260587051565,-0.001988356281046238,0.3551563261176548
3.58,-0.3214162924984663,11.118655766238055,1586.1363462715033,-0.20455588647683645,2.3085468594246397,287.7660242465381,-0.0254078837762335,0.04359221722612256,-16.0319773726858,0.0009562241085145318,-0.002185110963291656,22.944609132586503,0.8880153703278739,0.00401134898351397,-0.002470529675992569,0.4598401915820306
3.59,-0.32346314541133114,11.141743397698004,1589.0131977758329,-0.20481401856290443,2.308984905275539,287.60356309218344,-0.02607582401890547,0.04428755943701533,-16.460163537721208,0.00019834173621854933,-0.0018885437559943144,22.940439055277007,0.829543814353612,0.003709374873579351,-0.0029213429803338965,0.5584604071951678
3.6,-0.32551260069251536,11.164835499047463,1591.8884032699084,-0.2050777798784082,2.3094373197953875,287.4368228347203,-0.026760427535650954,0.04648532585178924,-16.88779365866746,-0.00035131391367507865,-0.001301295797999096,22.935701356265724,0.7601854753873808,0.003354773102147018,-0.0033337239987309536,0.6497251023961182
3.61,-0.32756472722503294,11.187932251803272,1594.7619199883356,-0.20534866778838612,2.3099198902486484,287.26580907092756,-0.027386956166241972,0.050295108957395,-17.31487098779362,-0.0005811838505959556,-0.0005655568913408261,22.930388176617353,0.6808554311107894,0.002952437739574314,-0.003700891949862088,0.7324344784582879
3.62,-0.3296195913316309,11.211034048092872,1597.6337052253687,-0.20562515917167612,2.310448177082311,287.0905275958429,-0.027891023182199652,0.055609350196425475,-17.741310600043445,-0.0004754950945455292,0.00015086433480578638,22.924470318315514,0.5926058364639484,0.002508513641989596,-0.004017070148527524,0.8055076923391516
3.63,-0.3316772435590558,11.234141416305985,1600.5037163356546,-0.20590586119972984,2.3110364163538337,286.910984662282,-0.02822070962378059,0.06223814368570347,-18.16718490730056,-9.536987483880927e-05,0.0006962524805231417,22.917940308187045,0.49660410515084835,0.0020299456926616073,-0.004277514780530816,0.8679913619823854
3.64,-0.3337377160442312,11.257255016387985,1603.3719107321128,-0.20618883643998123,2.3116964034550938,286.727185768522,-0.028337027387584285,0.06990655051136048,-18.592502115602546,0.0004369386487891574,0.0009712141118055871,22.910910097178487,0.39411784848184617,0.0015242539588212404,-0.004478696892844488,0.9190733437752665
